;Scopy version,dda5ec6
;Exported on,Friday January 14/01/2022
;Device,M2K
;Nr of samples,3200
;Sample rate,1e+06
;Tool,Oscilloscope
;Additional Information,
Sample,Time(S),CH1(V),CH2(V)
0,-0.0016,0.48122,0.497341
1,-0.001599,0.482738,0.497341
2,-0.001598,0.482738,0.497341
3,-0.001597,0.482738,0.497341
4,-0.001596,0.482738,0.497341
5,-0.001595,0.482738,0.497341
6,-0.001594,0.482738,0.495823
7,-0.001593,0.482738,0.497341
8,-0.001592,0.482738,0.497341
9,-0.001591,0.482738,0.497341
10,-0.00159,0.482738,0.495823
11,-0.001589,0.482738,0.495823
12,-0.001588,0.482738,0.495823
13,-0.001587,0.482738,0.497341
14,-0.001586,0.482738,0.497341
15,-0.001585,0.482738,0.497341
16,-0.001584,0.482738,0.497341
17,-0.001583,0.484256,0.497341
18,-0.001582,0.484256,0.497341
19,-0.001581,0.484256,0.497341
20,-0.00158,0.484256,0.497341
21,-0.001579,0.484256,0.497341
22,-0.001578,0.484256,0.497341
23,-0.001577,0.484256,0.497341
24,-0.001576,0.482738,0.500377
25,-0.001575,0.482738,0.497341
26,-0.001574,0.484256,0.495823
27,-0.001573,0.484256,0.497341
28,-0.001572,0.484256,0.497341
29,-0.001571,0.484256,0.497341
30,-0.00157,0.484256,0.497341
31,-0.001569,0.484256,0.491269
32,-0.001568,0.484256,0.559581
33,-0.001567,0.48122,-0.264717
34,-0.001566,0.472112,-0.490906
35,-0.001565,0.461485,-0.50305
36,-0.001564,0.450859,-0.501532
37,-0.001563,0.441751,-0.501532
38,-0.001562,0.432643,-0.501532
39,-0.001561,0.422016,-0.50305
40,-0.00156,0.412908,-0.501532
41,-0.001559,0.402282,-0.501532
42,-0.001558,0.39621,-0.506086
43,-0.001557,0.385583,-0.501532
44,-0.001556,0.377993,-0.501532
45,-0.001555,0.368885,-0.500014
46,-0.001554,0.359776,-0.50305
47,-0.001553,0.350668,-0.501532
48,-0.001552,0.34156,-0.501532
49,-0.001551,0.332452,-0.501532
50,-0.00155,0.324861,-0.501532
51,-0.001549,0.317271,-0.501532
52,-0.001548,0.308163,-0.501532
53,-0.001547,0.299055,-0.501532
54,-0.001546,0.291465,-0.501532
55,-0.001545,0.282356,-0.501532
56,-0.001544,0.274766,-0.50305
57,-0.001543,0.268694,-0.501532
58,-0.001542,0.259586,-0.50305
59,-0.001541,0.253513,-0.501532
60,-0.00154,0.244405,-0.501532
61,-0.001539,0.239851,-0.501532
62,-0.001538,0.229225,-0.501532
63,-0.001537,0.223153,-0.501532
64,-0.001536,0.21708,-0.501532
65,-0.001535,0.206454,-0.501532
66,-0.001534,0.200382,-0.50305
67,-0.001533,0.19431,-0.50305
68,-0.001532,0.186719,-0.50305
69,-0.001531,0.177611,-0.501532
70,-0.00153,0.171539,-0.501532
71,-0.001529,0.163949,-0.501532
72,-0.001528,0.157877,-0.50305
73,-0.001527,0.151804,-0.501532
74,-0.001526,0.145732,-0.50305
75,-0.001525,0.138142,-0.50305
76,-0.001524,0.13207,-0.50305
77,-0.001523,0.125998,-0.50305
78,-0.001522,0.119925,-0.50305
79,-0.001521,0.112335,-0.501532
80,-0.00152,0.106263,-0.50305
81,-0.001519,0.100191,-0.500014
82,-0.001518,0.0926007,-0.50305
83,-0.001517,0.0880466,-0.50305
84,-0.001516,0.0819744,-0.50305
85,-0.001515,0.0743842,-0.50305
86,-0.001514,0.06983,-0.50305
87,-0.001513,0.0622398,-0.50305
88,-0.001512,0.0592037,-0.50305
89,-0.001511,0.0531316,-0.50305
90,-0.00151,0.0485774,-0.50305
91,-0.001509,0.0425052,-0.500014
92,-0.001508,0.034915,-0.50305
93,-0.001507,0.0318789,-0.50305
94,-0.001506,0.0258068,-0.50305
95,-0.001505,0.0197346,-0.50305
96,-0.001504,0.0136624,-0.50305
97,-0.001503,0.0106263,-0.50305
98,-0.001502,0.00455413,-0.50305
99,-0.001501,0,-0.506086
100,-0.0015,-0.00607218,-0.50305
101,-0.001499,-0.0106263,-0.500014
102,-0.001498,-0.0151804,-0.50305
103,-0.001497,-0.0212526,-0.50305
104,-0.001496,-0.0258068,-0.50305
105,-0.001495,-0.0303609,-0.50305
106,-0.001494,-0.034915,-0.50305
107,-0.001493,-0.0394692,-0.501532
108,-0.001492,-0.0440233,-0.50305
109,-0.001491,-0.0470594,-0.50305
110,-0.00149,-0.0531316,-0.50305
111,-0.001489,-0.0576857,-0.50305
112,-0.001488,-0.0622398,-0.50305
113,-0.001487,-0.0667939,-0.506086
114,-0.001486,-0.0743842,-0.50305
115,-0.001485,-0.0759022,-0.50305
116,-0.001484,-0.0819744,-0.50305
117,-0.001483,-0.0850105,-0.50305
118,-0.001482,-0.0880466,-0.50305
119,-0.001481,-0.0926007,-0.50305
120,-0.00148,-0.0956368,-0.507604
121,-0.001479,-0.103227,-0.50305
122,-0.001478,-0.104745,-0.50305
123,-0.001477,-0.110817,-0.50305
124,-0.001476,-0.112335,-0.50305
125,-0.001475,-0.118407,-0.50305
126,-0.001474,-0.121444,-0.50305
127,-0.001473,-0.12448,-0.50305
128,-0.001472,-0.130552,-0.50305
129,-0.001471,-0.13207,-0.50305
130,-0.00147,-0.136624,-0.50305
131,-0.001469,-0.13966,-0.50305
132,-0.001468,-0.142696,-0.50305
133,-0.001467,-0.148768,-0.506086
134,-0.001466,-0.151804,-0.50305
135,-0.001465,-0.154841,-0.506086
136,-0.001464,-0.157877,-0.506086
137,-0.001463,-0.160913,-0.50305
138,-0.001462,-0.163949,-0.50305
139,-0.001461,-0.170021,-0.506086
140,-0.00146,-0.173057,-0.50305
141,-0.001459,-0.176093,-0.506086
142,-0.001458,-0.179129,-0.506086
143,-0.001457,-0.182165,-0.506086
144,-0.001456,-0.185201,-0.50305
145,-0.001455,-0.188237,-0.506086
146,-0.001454,-0.191274,-0.506086
147,-0.001453,-0.197346,-0.506086
148,-0.001452,-0.197346,-0.506086
149,-0.001451,-0.2019,-0.506086
150,-0.00145,-0.204936,-0.506086
151,-0.001449,-0.207972,-0.506086
152,-0.001448,-0.211008,-0.506086
153,-0.001447,-0.214044,-0.506086
154,-0.001446,-0.218598,-0.506086
155,-0.001445,-0.218598,-0.506086
156,-0.001444,-0.223153,-0.509122
157,-0.001443,-0.226189,-0.506086
158,-0.001442,-0.229225,-0.506086
159,-0.001441,-0.230743,-0.506086
160,-0.00144,-0.233779,-0.506086
161,-0.001439,-0.236815,-0.506086
162,-0.001438,-0.236815,-0.506086
163,-0.001437,-0.242887,-0.507604
164,-0.001436,-0.245923,-0.507604
165,-0.001435,-0.248959,-0.507604
166,-0.001434,-0.248959,-0.507604
167,-0.001433,-0.251995,-0.507604
168,-0.001432,-0.255031,-0.506086
169,-0.001431,-0.258068,-0.507604
170,-0.00143,-0.258068,-0.507604
171,-0.001429,-0.262622,-0.507604
172,-0.001428,-0.262622,-0.507604
173,-0.001427,-0.268694,-0.507604
174,-0.001426,-0.270212,-0.506086
175,-0.001425,-0.273248,-0.506086
176,-0.001424,-0.273248,-0.506086
177,-0.001423,-0.276284,-0.507604
178,-0.001422,-0.27932,-0.506086
179,-0.001421,-0.280838,-0.507604
180,-0.00142,-0.283874,-0.507604
181,-0.001419,-0.285392,-0.50305
182,-0.001418,-0.28691,-0.507604
183,-0.001417,-0.289946,-0.507604
184,-0.001416,-0.292983,-0.506086
185,-0.001415,-0.294501,-0.506086
186,-0.001414,-0.297537,-0.506086
187,-0.001413,-0.297537,-0.507604
188,-0.001412,-0.300573,-0.50305
189,-0.001411,-0.303609,-0.507604
190,-0.00141,-0.303609,-0.507604
191,-0.001409,-0.306645,-0.506086
192,-0.001408,-0.308163,-0.506086
193,-0.001407,-0.312717,-0.507604
194,-0.001406,-0.314235,-0.506086
195,-0.001405,-0.315753,-0.506086
196,-0.001404,-0.315753,-0.506086
197,-0.001403,-0.318789,-0.506086
198,-0.001402,-0.321825,-0.506086
199,-0.001401,-0.323343,-0.506086
200,-0.0014,-0.323343,-0.507604
201,-0.001399,-0.324861,-0.506086
202,-0.001398,-0.327898,-0.506086
203,-0.001397,-0.329416,-0.506086
204,-0.001396,-0.330934,-0.506086
205,-0.001395,-0.330934,-0.507604
206,-0.001394,-0.33397,-0.509122
207,-0.001393,-0.337006,-0.507604
208,-0.001392,-0.338524,-0.507604
209,-0.001391,-0.340042,-0.507604
210,-0.00139,-0.34156,-0.507604
211,-0.001389,-0.343078,-0.506086
212,-0.001388,-0.344596,-0.507604
213,-0.001387,-0.346114,-0.507604
214,-0.001386,-0.347632,-0.507604
215,-0.001385,-0.350668,-0.509122
216,-0.001384,-0.352186,-0.506086
217,-0.001383,-0.352186,-0.507604
218,-0.001382,-0.353704,-0.507604
219,-0.001381,-0.355222,-0.507604
220,-0.00138,-0.35674,-0.507604
221,-0.001379,-0.358258,-0.50305
222,-0.001378,-0.358258,-0.507604
223,-0.001377,-0.362813,-0.507604
224,-0.001376,-0.364331,-0.507604
225,-0.001375,-0.365849,-0.509122
226,-0.001374,-0.365849,-0.507604
227,-0.001373,-0.367367,-0.506086
228,-0.001372,-0.367367,-0.506086
229,-0.001371,-0.370403,-0.509122
230,-0.00137,-0.371921,-0.507604
231,-0.001369,-0.373439,-0.507604
232,-0.001368,-0.374957,-0.506086
233,-0.001367,-0.376475,-0.509122
234,-0.001366,-0.374957,-0.506086
235,-0.001365,-0.377993,-0.507604
236,-0.001364,-0.379511,-0.507604
237,-0.001363,-0.381029,-0.506086
238,-0.001362,-0.381029,-0.507604
239,-0.001361,-0.382547,-0.507604
240,-0.00136,-0.382547,-0.507604
241,-0.001359,-0.387101,-0.507604
242,-0.001358,-0.387101,-0.506086
243,-0.001357,-0.387101,-0.507604
244,-0.001356,-0.390137,-0.50305
245,-0.001355,-0.391655,-0.507604
246,-0.001354,-0.391655,-0.507604
247,-0.001353,-0.393173,-0.506086
248,-0.001352,-0.394692,-0.506086
249,-0.001351,-0.394692,-0.509122
250,-0.00135,-0.39621,-0.50305
251,-0.001349,-0.39621,-0.506086
252,-0.001348,-0.397728,-0.507604
253,-0.001347,-0.397728,-0.507604
254,-0.001346,-0.400764,-0.507604
255,-0.001345,-0.399246,-0.506086
256,-0.001344,-0.402282,-0.509122
257,-0.001343,-0.402282,-0.50305
258,-0.001342,-0.4038,-0.507604
259,-0.001341,-0.405318,-0.509122
260,-0.00134,-0.405318,-0.506086
261,-0.001339,-0.408354,-0.506086
262,-0.001338,-0.405318,-0.509122
263,-0.001337,-0.41139,-0.506086
264,-0.001336,-0.409872,-0.506086
265,-0.001335,-0.412908,-0.506086
266,-0.001334,-0.41139,-0.509122
267,-0.001333,-0.414426,-0.506086
268,-0.001332,-0.412908,-0.506086
269,-0.001331,-0.415944,-0.509122
270,-0.00133,-0.415944,-0.507604
271,-0.001329,-0.417462,-0.506086
272,-0.001328,-0.417462,-0.509122
273,-0.001327,-0.41898,-0.509122
274,-0.001326,-0.41898,-0.506086
275,-0.001325,-0.41898,-0.507604
276,-0.001324,-0.422016,-0.509122
277,-0.001323,-0.422016,-0.506086
278,-0.001322,-0.423534,-0.506086
279,-0.001321,-0.422016,-0.506086
280,-0.00132,-0.425052,-0.507604
281,-0.001319,-0.425052,-0.507604
282,-0.001318,-0.42657,-0.509122
283,-0.001317,-0.42657,-0.506086
284,-0.001316,-0.42657,-0.507604
285,-0.001315,-0.42657,-0.507604
286,-0.001314,-0.429607,-0.507604
287,-0.001313,-0.429607,-0.506086
288,-0.001312,-0.429607,-0.506086
289,-0.001311,-0.432643,-0.509122
290,-0.00131,-0.429607,-0.507604
291,-0.001309,-0.434161,-0.507604
292,-0.001308,-0.434161,-0.509122
293,-0.001307,-0.434161,-0.507604
294,-0.001306,-0.435679,-0.507604
295,-0.001305,-0.434161,-0.507604
296,-0.001304,-0.437197,-0.509122
297,-0.001303,-0.435679,-0.509122
298,-0.001302,-0.438715,-0.507604
299,-0.001301,-0.438715,-0.507604
300,-0.0013,-0.438715,-0.507604
301,-0.001299,-0.438715,-0.507604
302,-0.001298,-0.441751,-0.507604
303,-0.001297,-0.441751,-0.509122
304,-0.001296,-0.440233,-0.507604
305,-0.001295,-0.443269,-0.509122
306,-0.001294,-0.443269,-0.509122
307,-0.001293,-0.441751,-0.509122
308,-0.001292,-0.444787,-0.507604
309,-0.001291,-0.443269,-0.507604
310,-0.00129,-0.446305,-0.507604
311,-0.001289,-0.446305,-0.507604
312,-0.001288,-0.444787,-0.507604
313,-0.001287,-0.447823,-0.507604
314,-0.001286,-0.447823,-0.507604
315,-0.001285,-0.447823,-0.507604
316,-0.001284,-0.447823,-0.509122
317,-0.001283,-0.449341,-0.507604
318,-0.001282,-0.450859,-0.507604
319,-0.001281,-0.449341,-0.507604
320,-0.00128,-0.450859,-0.507604
321,-0.001279,-0.450859,-0.507604
322,-0.001278,-0.452377,-0.509122
323,-0.001277,-0.452377,-0.509122
324,-0.001276,-0.452377,-0.507604
325,-0.001275,-0.452377,-0.507604
326,-0.001274,-0.453895,-0.507604
327,-0.001273,-0.456931,-0.507604
328,-0.001272,-0.452377,-0.507604
329,-0.001271,-0.456931,-0.509122
330,-0.00127,-0.453895,-0.507604
331,-0.001269,-0.458449,-0.507604
332,-0.001268,-0.458449,-0.507604
333,-0.001267,-0.458449,-0.509122
334,-0.001266,-0.456931,-0.507604
335,-0.001265,-0.458449,-0.507604
336,-0.001264,-0.459967,-0.507604
337,-0.001263,-0.459967,-0.507604
338,-0.001262,-0.459967,-0.507604
339,-0.001261,-0.461485,-0.507604
340,-0.00126,-0.461485,-0.507604
341,-0.001259,-0.461485,-0.507604
342,-0.001258,-0.463004,-0.507604
343,-0.001257,-0.463004,-0.507604
344,-0.001256,-0.463004,-0.507604
345,-0.001255,-0.463004,-0.507604
346,-0.001254,-0.464522,-0.507604
347,-0.001253,-0.464522,-0.507604
348,-0.001252,-0.464522,-0.507604
349,-0.001251,-0.46604,-0.507604
350,-0.00125,-0.46604,-0.507604
351,-0.001249,-0.46604,-0.507604
352,-0.001248,-0.46604,-0.507604
353,-0.001247,-0.467558,-0.509122
354,-0.001246,-0.46604,-0.507604
355,-0.001245,-0.467558,-0.507604
356,-0.001244,-0.467558,-0.507604
357,-0.001243,-0.467558,-0.507604
358,-0.001242,-0.469076,-0.507604
359,-0.001241,-0.469076,-0.507604
360,-0.00124,-0.469076,-0.509122
361,-0.001239,-0.469076,-0.506086
362,-0.001238,-0.470594,-0.507604
363,-0.001237,-0.470594,-0.507604
364,-0.001236,-0.470594,-0.507604
365,-0.001235,-0.470594,-0.507604
366,-0.001234,-0.470594,-0.507604
367,-0.001233,-0.472112,-0.507604
368,-0.001232,-0.472112,-0.509122
369,-0.001231,-0.472112,-0.510641
370,-0.00123,-0.472112,-0.507604
371,-0.001229,-0.472112,-0.507604
372,-0.001228,-0.472112,-0.507604
373,-0.001227,-0.47363,-0.507604
374,-0.001226,-0.47363,-0.507604
375,-0.001225,-0.47363,-0.507604
376,-0.001224,-0.47363,-0.509122
377,-0.001223,-0.47363,-0.509122
378,-0.001222,-0.475148,-0.507604
379,-0.001221,-0.475148,-0.507604
380,-0.00122,-0.475148,-0.507604
381,-0.001219,-0.475148,-0.507604
382,-0.001218,-0.476666,-0.507604
383,-0.001217,-0.476666,-0.507604
384,-0.001216,-0.476666,-0.507604
385,-0.001215,-0.476666,-0.507604
386,-0.001214,-0.476666,-0.509122
387,-0.001213,-0.476666,-0.507604
388,-0.001212,-0.476666,-0.507604
389,-0.001211,-0.478184,-0.507604
390,-0.00121,-0.478184,-0.507604
391,-0.001209,-0.478184,-0.507604
392,-0.001208,-0.478184,-0.507604
393,-0.001207,-0.478184,-0.507604
394,-0.001206,-0.478184,-0.509122
395,-0.001205,-0.478184,-0.507604
396,-0.001204,-0.48122,-0.507604
397,-0.001203,-0.48122,-0.507604
398,-0.001202,-0.48122,-0.507604
399,-0.001201,-0.48122,-0.509122
400,-0.0012,-0.478184,-0.509122
401,-0.001199,-0.48122,-0.506086
402,-0.001198,-0.482738,-0.509122
403,-0.001197,-0.482738,-0.507604
404,-0.001196,-0.482738,-0.507604
405,-0.001195,-0.482738,-0.507604
406,-0.001194,-0.482738,-0.507604
407,-0.001193,-0.482738,-0.507604
408,-0.001192,-0.482738,-0.507604
409,-0.001191,-0.484256,-0.507604
410,-0.00119,-0.484256,-0.507604
411,-0.001189,-0.484256,-0.507604
412,-0.001188,-0.484256,-0.507604
413,-0.001187,-0.484256,-0.507604
414,-0.001186,-0.484256,-0.509122
415,-0.001185,-0.484256,-0.509122
416,-0.001184,-0.484256,-0.510641
417,-0.001183,-0.484256,-0.509122
418,-0.001182,-0.485774,-0.506086
419,-0.001181,-0.485774,-0.509122
420,-0.00118,-0.485774,-0.507604
421,-0.001179,-0.487292,-0.506086
422,-0.001178,-0.485774,-0.509122
423,-0.001177,-0.485774,-0.507604
424,-0.001176,-0.487292,-0.507604
425,-0.001175,-0.487292,-0.507604
426,-0.001174,-0.487292,-0.507604
427,-0.001173,-0.487292,-0.507604
428,-0.001172,-0.487292,-0.507604
429,-0.001171,-0.487292,-0.509122
430,-0.00117,-0.48881,-0.507604
431,-0.001169,-0.487292,-0.507604
432,-0.001168,-0.487292,-0.507604
433,-0.001167,-0.48881,-0.507604
434,-0.001166,-0.48881,-0.507604
435,-0.001165,-0.48881,-0.507604
436,-0.001164,-0.48881,-0.509122
437,-0.001163,-0.48881,-0.509122
438,-0.001162,-0.48881,-0.507604
439,-0.001161,-0.48881,-0.507604
440,-0.00116,-0.48881,-0.507604
441,-0.001159,-0.490328,-0.507604
442,-0.001158,-0.490328,-0.509122
443,-0.001157,-0.48881,-0.507604
444,-0.001156,-0.490328,-0.507604
445,-0.001155,-0.490328,-0.509122
446,-0.001154,-0.490328,-0.507604
447,-0.001153,-0.490328,-0.507604
448,-0.001152,-0.490328,-0.507604
449,-0.001151,-0.490328,-0.507604
450,-0.00115,-0.490328,-0.507604
451,-0.001149,-0.490328,-0.507604
452,-0.001148,-0.490328,-0.507604
453,-0.001147,-0.491846,-0.510641
454,-0.001146,-0.490328,-0.507604
455,-0.001145,-0.491846,-0.507604
456,-0.001144,-0.491846,-0.509122
457,-0.001143,-0.491846,-0.509122
458,-0.001142,-0.491846,-0.509122
459,-0.001141,-0.491846,-0.507604
460,-0.00114,-0.491846,-0.507604
461,-0.001139,-0.491846,-0.507604
462,-0.001138,-0.490328,-0.507604
463,-0.001137,-0.493364,-0.510641
464,-0.001136,-0.491846,-0.507604
465,-0.001135,-0.491846,-0.507604
466,-0.001134,-0.493364,-0.507604
467,-0.001133,-0.493364,-0.507604
468,-0.001132,-0.493364,-0.507604
469,-0.001131,-0.493364,-0.507604
470,-0.00113,-0.493364,-0.507604
471,-0.001129,-0.493364,-0.507604
472,-0.001128,-0.493364,-0.507604
473,-0.001127,-0.493364,-0.507604
474,-0.001126,-0.493364,-0.507604
475,-0.001125,-0.493364,-0.507604
476,-0.001124,-0.493364,-0.507604
477,-0.001123,-0.493364,-0.507604
478,-0.001122,-0.493364,-0.507604
479,-0.001121,-0.494882,-0.507604
480,-0.00112,-0.494882,-0.507604
481,-0.001119,-0.494882,-0.507604
482,-0.001118,-0.494882,-0.507604
483,-0.001117,-0.494882,-0.507604
484,-0.001116,-0.494882,-0.507604
485,-0.001115,-0.494882,-0.507604
486,-0.001114,-0.494882,-0.510641
487,-0.001113,-0.494882,-0.509122
488,-0.001112,-0.494882,-0.506086
489,-0.001111,-0.494882,-0.509122
490,-0.00111,-0.494882,-0.509122
491,-0.001109,-0.494882,-0.507604
492,-0.001108,-0.494882,-0.507604
493,-0.001107,-0.494882,-0.509122
494,-0.001106,-0.494882,-0.507604
495,-0.001105,-0.494882,-0.507604
496,-0.001104,-0.494882,-0.507604
497,-0.001103,-0.4964,-0.507604
498,-0.001102,-0.494882,-0.507604
499,-0.001101,-0.497919,-0.510641
500,-0.0011,-0.494882,-0.507604
501,-0.001099,-0.4964,-0.507604
502,-0.001098,-0.4964,-0.507604
503,-0.001097,-0.4964,-0.507604
504,-0.001096,-0.4964,-0.507604
505,-0.001095,-0.4964,-0.507604
506,-0.001094,-0.4964,-0.509122
507,-0.001093,-0.4964,-0.507604
508,-0.001092,-0.4964,-0.507604
509,-0.001091,-0.4964,-0.509122
510,-0.00109,-0.4964,-0.509122
511,-0.001089,-0.4964,-0.507604
512,-0.001088,-0.4964,-0.507604
513,-0.001087,-0.4964,-0.507604
514,-0.001086,-0.499437,-0.507604
515,-0.001085,-0.4964,-0.507604
516,-0.001084,-0.4964,-0.507604
517,-0.001083,-0.497919,-0.509122
518,-0.001082,-0.497919,-0.507604
519,-0.001081,-0.497919,-0.507604
520,-0.00108,-0.497919,-0.507604
521,-0.001079,-0.497919,-0.507604
522,-0.001078,-0.497919,-0.507604
523,-0.001077,-0.497919,-0.507604
524,-0.001076,-0.497919,-0.507604
525,-0.001075,-0.497919,-0.507604
526,-0.001074,-0.497919,-0.507604
527,-0.001073,-0.497919,-0.507604
528,-0.001072,-0.497919,-0.507604
529,-0.001071,-0.497919,-0.509122
530,-0.00107,-0.497919,-0.507604
531,-0.001069,-0.497919,-0.501532
532,-0.001068,-0.497919,-0.569844
533,-0.001067,-0.4964,0.255972
534,-0.001066,-0.487292,0.477606
535,-0.001065,-0.478184,0.491269
536,-0.001064,-0.46604,0.489751
537,-0.001063,-0.456931,0.489751
538,-0.001062,-0.446305,0.492787
539,-0.001061,-0.440233,0.489751
540,-0.00106,-0.428088,0.489751
541,-0.001059,-0.420498,0.491269
542,-0.001058,-0.41139,0.489751
543,-0.001057,-0.400764,0.489751
544,-0.001056,-0.394692,0.489751
545,-0.001055,-0.382547,0.489751
546,-0.001054,-0.374957,0.491269
547,-0.001053,-0.365849,0.491269
548,-0.001052,-0.358258,0.491269
549,-0.001051,-0.34915,0.489751
550,-0.00105,-0.340042,0.489751
551,-0.001049,-0.330934,0.491269
552,-0.001048,-0.323343,0.491269
553,-0.001047,-0.315753,0.491269
554,-0.001046,-0.308163,0.491269
555,-0.001045,-0.299055,0.489751
556,-0.001044,-0.292983,0.491269
557,-0.001043,-0.282356,0.491269
558,-0.001042,-0.274766,0.491269
559,-0.001041,-0.268694,0.491269
560,-0.00104,-0.259586,0.489751
561,-0.001039,-0.253513,0.492787
562,-0.001038,-0.244405,0.491269
563,-0.001037,-0.238333,0.492787
564,-0.001036,-0.229225,0.491269
565,-0.001035,-0.223153,0.491269
566,-0.001034,-0.214044,0.489751
567,-0.001033,-0.207972,0.492787
568,-0.001032,-0.200382,0.491269
569,-0.001031,-0.19431,0.492787
570,-0.00103,-0.186719,0.491269
571,-0.001029,-0.180647,0.491269
572,-0.001028,-0.174575,0.492787
573,-0.001027,-0.165467,0.489751
574,-0.001026,-0.159395,0.492787
575,-0.001025,-0.153322,0.492787
576,-0.001024,-0.14725,0.489751
577,-0.001023,-0.13966,0.492787
578,-0.001022,-0.135106,0.491269
579,-0.001021,-0.125998,0.491269
580,-0.00102,-0.122962,0.492787
581,-0.001019,-0.115371,0.491269
582,-0.001018,-0.109299,0.491269
583,-0.001017,-0.103227,0.491269
584,-0.001016,-0.0986729,0.492787
585,-0.001015,-0.0910827,0.492787
586,-0.001014,-0.0850105,0.492787
587,-0.001013,-0.0774203,0.495823
588,-0.001012,-0.0743842,0.492787
589,-0.001011,-0.0652759,0.494305
590,-0.00101,-0.0622398,0.492787
591,-0.001009,-0.0546496,0.492787
592,-0.001008,-0.0516135,0.492787
593,-0.001007,-0.0455413,0.492787
594,-0.001006,-0.0409872,0.494305
595,-0.001005,-0.0364331,0.494305
596,-0.001004,-0.0288428,0.494305
597,-0.001003,-0.0258068,0.494305
598,-0.001002,-0.0197346,0.494305
599,-0.001001,-0.0136624,0.494305
600,-0.001,-0.00910827,0.494305
601,-0.000999,-0.00303609,0.494305
602,-0.000998,0.00151804,0.494305
603,-0.000997,0.00607218,0.494305
604,-0.000996,0.0121444,0.494305
605,-0.000995,0.0151804,0.495823
606,-0.000994,0.0197346,0.492787
607,-0.000993,0.0258068,0.494305
608,-0.000992,0.0303609,0.497341
609,-0.000991,0.034915,0.492787
610,-0.00099,0.0394692,0.495823
611,-0.000989,0.0455413,0.495823
612,-0.000988,0.0500955,0.494305
613,-0.000987,0.0531316,0.494305
614,-0.000986,0.0561676,0.494305
615,-0.000985,0.0607218,0.494305
616,-0.000984,0.0667939,0.495823
617,-0.000983,0.068312,0.492787
618,-0.000982,0.0743842,0.495823
619,-0.000981,0.0804563,0.494305
620,-0.00098,0.0819744,0.494305
621,-0.000979,0.0880466,0.495823
622,-0.000978,0.0895646,0.494305
623,-0.000977,0.0971548,0.495823
624,-0.000976,0.0986729,0.494305
625,-0.000975,0.103227,0.495823
626,-0.000974,0.106263,0.495823
627,-0.000973,0.110817,0.495823
628,-0.000972,0.113853,0.495823
629,-0.000971,0.116889,0.495823
630,-0.00097,0.121444,0.495823
631,-0.000969,0.127516,0.495823
632,-0.000968,0.129034,0.495823
633,-0.000967,0.133588,0.495823
634,-0.000966,0.138142,0.495823
635,-0.000965,0.13966,0.497341
636,-0.000964,0.144214,0.497341
637,-0.000963,0.14725,0.495823
638,-0.000962,0.150286,0.495823
639,-0.000961,0.153322,0.495823
640,-0.00096,0.159395,0.495823
641,-0.000959,0.160913,0.497341
642,-0.000958,0.165467,0.497341
643,-0.000957,0.165467,0.497341
644,-0.000956,0.171539,0.497341
645,-0.000955,0.174575,0.495823
646,-0.000954,0.177611,0.497341
647,-0.000953,0.182165,0.497341
648,-0.000952,0.183683,0.494305
649,-0.000951,0.188237,0.497341
650,-0.00095,0.189756,0.497341
651,-0.000949,0.195828,0.497341
652,-0.000948,0.195828,0.497341
653,-0.000947,0.200382,0.497341
654,-0.000946,0.203418,0.497341
655,-0.000945,0.206454,0.495823
656,-0.000944,0.207972,0.497341
657,-0.000943,0.211008,0.497341
658,-0.000942,0.215562,0.497341
659,-0.000941,0.218598,0.497341
660,-0.00094,0.221634,0.498859
661,-0.000939,0.221634,0.497341
662,-0.000938,0.226189,0.495823
663,-0.000937,0.226189,0.495823
664,-0.000936,0.230743,0.497341
665,-0.000935,0.233779,0.497341
666,-0.000934,0.235297,0.498859
667,-0.000933,0.236815,0.498859
668,-0.000932,0.241369,0.495823
669,-0.000931,0.242887,0.498859
670,-0.00093,0.245923,0.494305
671,-0.000929,0.248959,0.497341
672,-0.000928,0.248959,0.498859
673,-0.000927,0.253513,0.497341
674,-0.000926,0.253513,0.497341
675,-0.000925,0.258068,0.497341
676,-0.000924,0.258068,0.497341
677,-0.000923,0.26414,0.497341
678,-0.000922,0.26414,0.497341
679,-0.000921,0.267176,0.497341
680,-0.00092,0.270212,0.497341
681,-0.000919,0.27173,0.497341
682,-0.000918,0.273248,0.497341
683,-0.000917,0.276284,0.495823
684,-0.000916,0.276284,0.495823
685,-0.000915,0.27932,0.497341
686,-0.000914,0.282356,0.497341
687,-0.000913,0.282356,0.497341
688,-0.000912,0.285392,0.497341
689,-0.000911,0.289946,0.497341
690,-0.00091,0.289946,0.497341
691,-0.000909,0.292983,0.497341
692,-0.000908,0.294501,0.497341
693,-0.000907,0.297537,0.497341
694,-0.000906,0.299055,0.497341
695,-0.000905,0.300573,0.497341
696,-0.000904,0.300573,0.497341
697,-0.000903,0.303609,0.497341
698,-0.000902,0.306645,0.497341
699,-0.000901,0.308163,0.495823
700,-0.0009,0.308163,0.495823
701,-0.000899,0.312717,0.495823
702,-0.000898,0.314235,0.498859
703,-0.000897,0.314235,0.495823
704,-0.000896,0.318789,0.495823
705,-0.000895,0.318789,0.497341
706,-0.000894,0.318789,0.497341
707,-0.000893,0.321825,0.494305
708,-0.000892,0.324861,0.495823
709,-0.000891,0.324861,0.498859
710,-0.00089,0.32638,0.495823
711,-0.000889,0.327898,0.495823
712,-0.000888,0.329416,0.495823
713,-0.000887,0.332452,0.497341
714,-0.000886,0.332452,0.495823
715,-0.000885,0.335488,0.497341
716,-0.000884,0.337006,0.495823
717,-0.000883,0.338524,0.495823
718,-0.000882,0.340042,0.495823
719,-0.000881,0.34156,0.495823
720,-0.00088,0.343078,0.498859
721,-0.000879,0.343078,0.494305
722,-0.000878,0.346114,0.497341
723,-0.000877,0.347632,0.497341
724,-0.000876,0.34915,0.495823
725,-0.000875,0.350668,0.497341
726,-0.000874,0.352186,0.495823
727,-0.000873,0.352186,0.495823
728,-0.000872,0.353704,0.495823
729,-0.000871,0.353704,0.497341
730,-0.00087,0.35674,0.495823
731,-0.000869,0.359776,0.495823
732,-0.000868,0.361295,0.495823
733,-0.000867,0.361295,0.497341
734,-0.000866,0.362813,0.497341
735,-0.000865,0.362813,0.497341
736,-0.000864,0.365849,0.495823
737,-0.000863,0.367367,0.495823
738,-0.000862,0.367367,0.497341
739,-0.000861,0.368885,0.495823
740,-0.00086,0.368885,0.498859
741,-0.000859,0.371921,0.495823
742,-0.000858,0.373439,0.494305
743,-0.000857,0.371921,0.498859
744,-0.000856,0.374957,0.495823
745,-0.000855,0.376475,0.495823
746,-0.000854,0.376475,0.497341
747,-0.000853,0.376475,0.497341
748,-0.000852,0.379511,0.497341
749,-0.000851,0.377993,0.497341
750,-0.00085,0.381029,0.497341
751,-0.000849,0.384065,0.497341
752,-0.000848,0.385583,0.497341
753,-0.000847,0.384065,0.497341
754,-0.000846,0.387101,0.497341
755,-0.000845,0.387101,0.497341
756,-0.000844,0.388619,0.495823
757,-0.000843,0.390137,0.497341
758,-0.000842,0.390137,0.497341
759,-0.000841,0.390137,0.497341
760,-0.00084,0.393173,0.497341
761,-0.000839,0.393173,0.497341
762,-0.000838,0.393173,0.495823
763,-0.000837,0.39621,0.495823
764,-0.000836,0.394692,0.497341
765,-0.000835,0.397728,0.497341
766,-0.000834,0.397728,0.497341
767,-0.000833,0.399246,0.497341
768,-0.000832,0.399246,0.497341
769,-0.000831,0.399246,0.497341
770,-0.00083,0.402282,0.497341
771,-0.000829,0.400764,0.497341
772,-0.000828,0.4038,0.497341
773,-0.000827,0.402282,0.495823
774,-0.000826,0.406836,0.498859
775,-0.000825,0.4038,0.495823
776,-0.000824,0.408354,0.497341
777,-0.000823,0.406836,0.497341
778,-0.000822,0.409872,0.497341
779,-0.000821,0.408354,0.497341
780,-0.00082,0.41139,0.497341
781,-0.000819,0.41139,0.498859
782,-0.000818,0.412908,0.497341
783,-0.000817,0.412908,0.497341
784,-0.000816,0.414426,0.497341
785,-0.000815,0.414426,0.497341
786,-0.000814,0.414426,0.497341
787,-0.000813,0.417462,0.497341
788,-0.000812,0.417462,0.497341
789,-0.000811,0.417462,0.497341
790,-0.00081,0.41898,0.497341
791,-0.000809,0.41898,0.497341
792,-0.000808,0.41898,0.497341
793,-0.000807,0.41898,0.497341
794,-0.000806,0.420498,0.497341
795,-0.000805,0.422016,0.497341
796,-0.000804,0.420498,0.497341
797,-0.000803,0.423534,0.498859
798,-0.000802,0.425052,0.497341
799,-0.000801,0.423534,0.495823
800,-0.0008,0.425052,0.497341
801,-0.000799,0.423534,0.497341
802,-0.000798,0.42657,0.497341
803,-0.000797,0.42657,0.497341
804,-0.000796,0.425052,0.497341
805,-0.000795,0.428088,0.497341
806,-0.000794,0.428088,0.497341
807,-0.000793,0.428088,0.497341
808,-0.000792,0.431125,0.497341
809,-0.000791,0.431125,0.497341
810,-0.00079,0.432643,0.497341
811,-0.000789,0.432643,0.497341
812,-0.000788,0.432643,0.497341
813,-0.000787,0.434161,0.497341
814,-0.000786,0.434161,0.495823
815,-0.000785,0.434161,0.498859
816,-0.000784,0.432643,0.495823
817,-0.000783,0.435679,0.497341
818,-0.000782,0.435679,0.495823
819,-0.000781,0.435679,0.497341
820,-0.00078,0.437197,0.497341
821,-0.000779,0.437197,0.497341
822,-0.000778,0.435679,0.497341
823,-0.000777,0.438715,0.495823
824,-0.000776,0.438715,0.497341
825,-0.000775,0.438715,0.497341
826,-0.000774,0.440233,0.494305
827,-0.000773,0.440233,0.497341
828,-0.000772,0.438715,0.495823
829,-0.000771,0.441751,0.495823
830,-0.00077,0.441751,0.495823
831,-0.000769,0.441751,0.495823
832,-0.000768,0.443269,0.495823
833,-0.000767,0.443269,0.497341
834,-0.000766,0.443269,0.495823
835,-0.000765,0.444787,0.498859
836,-0.000764,0.443269,0.495823
837,-0.000763,0.444787,0.495823
838,-0.000762,0.444787,0.498859
839,-0.000761,0.444787,0.495823
840,-0.00076,0.446305,0.495823
841,-0.000759,0.446305,0.497341
842,-0.000758,0.444787,0.494305
843,-0.000757,0.447823,0.497341
844,-0.000756,0.447823,0.495823
845,-0.000755,0.447823,0.495823
846,-0.000754,0.446305,0.494305
847,-0.000753,0.449341,0.494305
848,-0.000752,0.449341,0.497341
849,-0.000751,0.449341,0.495823
850,-0.00075,0.449341,0.495823
851,-0.000749,0.447823,0.495823
852,-0.000748,0.450859,0.495823
853,-0.000747,0.450859,0.495823
854,-0.000746,0.450859,0.495823
855,-0.000745,0.450859,0.495823
856,-0.000744,0.452377,0.495823
857,-0.000743,0.452377,0.495823
858,-0.000742,0.452377,0.497341
859,-0.000741,0.452377,0.495823
860,-0.00074,0.455413,0.495823
861,-0.000739,0.455413,0.497341
862,-0.000738,0.455413,0.495823
863,-0.000737,0.455413,0.495823
864,-0.000736,0.456931,0.495823
865,-0.000735,0.456931,0.497341
866,-0.000734,0.456931,0.497341
867,-0.000733,0.458449,0.497341
868,-0.000732,0.456931,0.497341
869,-0.000731,0.456931,0.497341
870,-0.00073,0.458449,0.494305
871,-0.000729,0.458449,0.498859
872,-0.000728,0.458449,0.495823
873,-0.000727,0.458449,0.495823
874,-0.000726,0.459967,0.495823
875,-0.000725,0.459967,0.495823
876,-0.000724,0.459967,0.497341
877,-0.000723,0.459967,0.495823
878,-0.000722,0.459967,0.495823
879,-0.000721,0.461485,0.497341
880,-0.00072,0.461485,0.495823
881,-0.000719,0.461485,0.497341
882,-0.000718,0.461485,0.495823
883,-0.000717,0.461485,0.495823
884,-0.000716,0.461485,0.497341
885,-0.000715,0.463004,0.497341
886,-0.000714,0.463004,0.497341
887,-0.000713,0.463004,0.497341
888,-0.000712,0.463004,0.497341
889,-0.000711,0.463004,0.497341
890,-0.00071,0.464522,0.497341
891,-0.000709,0.464522,0.497341
892,-0.000708,0.464522,0.497341
893,-0.000707,0.464522,0.494305
894,-0.000706,0.46604,0.497341
895,-0.000705,0.46604,0.497341
896,-0.000704,0.46604,0.497341
897,-0.000703,0.46604,0.497341
898,-0.000702,0.46604,0.497341
899,-0.000701,0.46604,0.497341
900,-0.0007,0.46604,0.497341
901,-0.000699,0.467558,0.495823
902,-0.000698,0.467558,0.497341
903,-0.000697,0.46604,0.497341
904,-0.000696,0.46604,0.497341
905,-0.000695,0.469076,0.497341
906,-0.000694,0.467558,0.498859
907,-0.000693,0.467558,0.497341
908,-0.000692,0.467558,0.497341
909,-0.000691,0.467558,0.497341
910,-0.00069,0.469076,0.497341
911,-0.000689,0.469076,0.497341
912,-0.000688,0.469076,0.497341
913,-0.000687,0.469076,0.497341
914,-0.000686,0.469076,0.497341
915,-0.000685,0.472112,0.497341
916,-0.000684,0.469076,0.497341
917,-0.000683,0.470594,0.497341
918,-0.000682,0.470594,0.497341
919,-0.000681,0.470594,0.497341
920,-0.00068,0.470594,0.497341
921,-0.000679,0.470594,0.497341
922,-0.000678,0.470594,0.498859
923,-0.000677,0.470594,0.498859
924,-0.000676,0.470594,0.495823
925,-0.000675,0.472112,0.498859
926,-0.000674,0.472112,0.497341
927,-0.000673,0.472112,0.497341
928,-0.000672,0.472112,0.497341
929,-0.000671,0.470594,0.497341
930,-0.00067,0.47363,0.497341
931,-0.000669,0.47363,0.497341
932,-0.000668,0.47363,0.500377
933,-0.000667,0.47363,0.497341
934,-0.000666,0.472112,0.495823
935,-0.000665,0.47363,0.498859
936,-0.000664,0.47363,0.498859
937,-0.000663,0.47363,0.498859
938,-0.000662,0.47363,0.498859
939,-0.000661,0.47363,0.498859
940,-0.00066,0.47363,0.497341
941,-0.000659,0.47363,0.497341
942,-0.000658,0.47363,0.497341
943,-0.000657,0.47363,0.498859
944,-0.000656,0.47363,0.495823
945,-0.000655,0.475148,0.498859
946,-0.000654,0.475148,0.498859
947,-0.000653,0.475148,0.495823
948,-0.000652,0.475148,0.498859
949,-0.000651,0.475148,0.498859
950,-0.00065,0.475148,0.498859
951,-0.000649,0.475148,0.495823
952,-0.000648,0.475148,0.497341
953,-0.000647,0.476666,0.500377
954,-0.000646,0.476666,0.497341
955,-0.000645,0.475148,0.497341
956,-0.000644,0.476666,0.497341
957,-0.000643,0.476666,0.497341
958,-0.000642,0.476666,0.497341
959,-0.000641,0.476666,0.498859
960,-0.00064,0.476666,0.497341
961,-0.000639,0.476666,0.497341
962,-0.000638,0.476666,0.497341
963,-0.000637,0.476666,0.498859
964,-0.000636,0.476666,0.495823
965,-0.000635,0.476666,0.498859
966,-0.000634,0.479702,0.498859
967,-0.000633,0.479702,0.495823
968,-0.000632,0.479702,0.498859
969,-0.000631,0.479702,0.498859
970,-0.00063,0.479702,0.497341
971,-0.000629,0.479702,0.497341
972,-0.000628,0.479702,0.497341
973,-0.000627,0.479702,0.497341
974,-0.000626,0.479702,0.497341
975,-0.000625,0.479702,0.497341
976,-0.000624,0.479702,0.497341
977,-0.000623,0.479702,0.497341
978,-0.000622,0.479702,0.497341
979,-0.000621,0.479702,0.498859
980,-0.00062,0.479702,0.497341
981,-0.000619,0.479702,0.497341
982,-0.000618,0.48122,0.497341
983,-0.000617,0.48122,0.497341
984,-0.000616,0.48122,0.498859
985,-0.000615,0.48122,0.497341
986,-0.000614,0.48122,0.497341
987,-0.000613,0.479702,0.497341
988,-0.000612,0.48122,0.495823
989,-0.000611,0.48122,0.497341
990,-0.00061,0.48122,0.497341
991,-0.000609,0.48122,0.497341
992,-0.000608,0.48122,0.497341
993,-0.000607,0.48122,0.497341
994,-0.000606,0.48122,0.498859
995,-0.000605,0.48122,0.497341
996,-0.000604,0.48122,0.497341
997,-0.000603,0.48122,0.497341
998,-0.000602,0.48122,0.497341
999,-0.000601,0.48122,0.497341
1000,-0.0006,0.48122,0.497341
1001,-0.000599,0.48122,0.497341
1002,-0.000598,0.482738,0.497341
1003,-0.000597,0.482738,0.497341
1004,-0.000596,0.48122,0.497341
1005,-0.000595,0.482738,0.497341
1006,-0.000594,0.48122,0.497341
1007,-0.000593,0.482738,0.497341
1008,-0.000592,0.482738,0.497341
1009,-0.000591,0.482738,0.497341
1010,-0.00059,0.482738,0.497341
1011,-0.000589,0.482738,0.497341
1012,-0.000588,0.482738,0.497341
1013,-0.000587,0.482738,0.497341
1014,-0.000586,0.482738,0.497341
1015,-0.000585,0.482738,0.497341
1016,-0.000584,0.482738,0.497341
1017,-0.000583,0.482738,0.497341
1018,-0.000582,0.482738,0.497341
1019,-0.000581,0.482738,0.497341
1020,-0.00058,0.482738,0.498859
1021,-0.000579,0.484256,0.497341
1022,-0.000578,0.482738,0.497341
1023,-0.000577,0.484256,0.497341
1024,-0.000576,0.484256,0.497341
1025,-0.000575,0.484256,0.497341
1026,-0.000574,0.484256,0.497341
1027,-0.000573,0.484256,0.498859
1028,-0.000572,0.484256,0.497341
1029,-0.000571,0.484256,0.497341
1030,-0.00057,0.484256,0.497341
1031,-0.000569,0.484256,0.492787
1032,-0.000568,0.484256,0.556545
1033,-0.000567,0.48122,-0.264717
1034,-0.000566,0.472112,-0.490906
1035,-0.000565,0.459967,-0.506086
1036,-0.000564,0.452377,-0.50305
1037,-0.000563,0.440233,-0.501532
1038,-0.000562,0.434161,-0.501532
1039,-0.000561,0.423534,-0.50305
1040,-0.00056,0.41139,-0.500014
1041,-0.000559,0.406836,-0.50305
1042,-0.000558,0.394692,-0.501532
1043,-0.000557,0.385583,-0.501532
1044,-0.000556,0.377993,-0.50305
1045,-0.000555,0.367367,-0.501532
1046,-0.000554,0.361295,-0.501532
1047,-0.000553,0.350668,-0.501532
1048,-0.000552,0.34156,-0.501532
1049,-0.000551,0.332452,-0.50305
1050,-0.00055,0.324861,-0.500014
1051,-0.000549,0.317271,-0.50305
1052,-0.000548,0.308163,-0.50305
1053,-0.000547,0.300573,-0.500014
1054,-0.000546,0.291465,-0.50305
1055,-0.000545,0.282356,-0.50305
1056,-0.000544,0.274766,-0.50305
1057,-0.000543,0.268694,-0.501532
1058,-0.000542,0.259586,-0.501532
1059,-0.000541,0.253513,-0.506086
1060,-0.00054,0.244405,-0.501532
1061,-0.000539,0.235297,-0.501532
1062,-0.000538,0.229225,-0.501532
1063,-0.000537,0.223153,-0.501532
1064,-0.000536,0.21708,-0.50305
1065,-0.000535,0.206454,-0.50305
1066,-0.000534,0.200382,-0.50305
1067,-0.000533,0.19431,-0.501532
1068,-0.000532,0.186719,-0.501532
1069,-0.000531,0.177611,-0.50305
1070,-0.00053,0.171539,-0.50305
1071,-0.000529,0.163949,-0.50305
1072,-0.000528,0.157877,-0.50305
1073,-0.000527,0.151804,-0.500014
1074,-0.000526,0.145732,-0.50305
1075,-0.000525,0.138142,-0.50305
1076,-0.000524,0.130552,-0.50305
1077,-0.000523,0.12448,-0.50305
1078,-0.000522,0.116889,-0.50305
1079,-0.000521,0.112335,-0.50305
1080,-0.00052,0.106263,-0.50305
1081,-0.000519,0.100191,-0.50305
1082,-0.000518,0.0910827,-0.50305
1083,-0.000517,0.0880466,-0.50305
1084,-0.000516,0.0819744,-0.50305
1085,-0.000515,0.0743842,-0.50305
1086,-0.000514,0.06983,-0.50305
1087,-0.000513,0.0622398,-0.50305
1088,-0.000512,0.0592037,-0.50305
1089,-0.000511,0.0546496,-0.50305
1090,-0.00051,0.0455413,-0.50305
1091,-0.000509,0.0425052,-0.50305
1092,-0.000508,0.0364331,-0.506086
1093,-0.000507,0.0303609,-0.50305
1094,-0.000506,0.0258068,-0.50305
1095,-0.000505,0.0197346,-0.50305
1096,-0.000504,0.0151804,-0.50305
1097,-0.000503,0.0106263,-0.50305
1098,-0.000502,0.00455413,-0.50305
1099,-0.000501,0,-0.50305
1100,-0.0005,-0.00607218,-0.50305
1101,-0.000499,-0.0121444,-0.50305
1102,-0.000498,-0.0151804,-0.50305
1103,-0.000497,-0.0212526,-0.50305
1104,-0.000496,-0.0258068,-0.50305
1105,-0.000495,-0.0303609,-0.50305
1106,-0.000494,-0.034915,-0.50305
1107,-0.000493,-0.0394692,-0.500014
1108,-0.000492,-0.0440233,-0.50305
1109,-0.000491,-0.0516135,-0.50305
1110,-0.00049,-0.0531316,-0.50305
1111,-0.000489,-0.0576857,-0.50305
1112,-0.000488,-0.0622398,-0.506086
1113,-0.000487,-0.068312,-0.506086
1114,-0.000486,-0.0713481,-0.501532
1115,-0.000485,-0.0774203,-0.506086
1116,-0.000484,-0.0804563,-0.50305
1117,-0.000483,-0.0865285,-0.50305
1118,-0.000482,-0.0880466,-0.50305
1119,-0.000481,-0.0926007,-0.50305
1120,-0.00048,-0.0956368,-0.50305
1121,-0.000479,-0.101709,-0.50305
1122,-0.000478,-0.104745,-0.50305
1123,-0.000477,-0.110817,-0.506086
1124,-0.000476,-0.112335,-0.501532
1125,-0.000475,-0.116889,-0.506086
1126,-0.000474,-0.121444,-0.506086
1127,-0.000473,-0.12448,-0.501532
1128,-0.000472,-0.129034,-0.507604
1129,-0.000471,-0.13207,-0.50305
1130,-0.00047,-0.136624,-0.50305
1131,-0.000469,-0.13966,-0.50305
1132,-0.000468,-0.142696,-0.506086
1133,-0.000467,-0.14725,-0.506086
1134,-0.000466,-0.151804,-0.506086
1135,-0.000465,-0.154841,-0.506086
1136,-0.000464,-0.157877,-0.506086
1137,-0.000463,-0.160913,-0.506086
1138,-0.000462,-0.163949,-0.506086
1139,-0.000461,-0.170021,-0.506086
1140,-0.00046,-0.173057,-0.506086
1141,-0.000459,-0.174575,-0.506086
1142,-0.000458,-0.180647,-0.506086
1143,-0.000457,-0.182165,-0.506086
1144,-0.000456,-0.185201,-0.506086
1145,-0.000455,-0.188237,-0.506086
1146,-0.000454,-0.19431,-0.506086
1147,-0.000453,-0.195828,-0.506086
1148,-0.000452,-0.200382,-0.506086
1149,-0.000451,-0.200382,-0.506086
1150,-0.00045,-0.204936,-0.506086
1151,-0.000449,-0.206454,-0.507604
1152,-0.000448,-0.211008,-0.507604
1153,-0.000447,-0.214044,-0.506086
1154,-0.000446,-0.214044,-0.509122
1155,-0.000445,-0.220116,-0.507604
1156,-0.000444,-0.223153,-0.509122
1157,-0.000443,-0.226189,-0.506086
1158,-0.000442,-0.229225,-0.506086
1159,-0.000441,-0.232261,-0.509122
1160,-0.00044,-0.232261,-0.507604
1161,-0.000439,-0.236815,-0.506086
1162,-0.000438,-0.238333,-0.507604
1163,-0.000437,-0.242887,-0.50305
1164,-0.000436,-0.245923,-0.507604
1165,-0.000435,-0.247441,-0.507604
1166,-0.000434,-0.250477,-0.507604
1167,-0.000433,-0.253513,-0.50305
1168,-0.000432,-0.253513,-0.507604
1169,-0.000431,-0.258068,-0.507604
1170,-0.00043,-0.259586,-0.507604
1171,-0.000429,-0.262622,-0.506086
1172,-0.000428,-0.262622,-0.509122
1173,-0.000427,-0.268694,-0.507604
1174,-0.000426,-0.268694,-0.507604
1175,-0.000425,-0.273248,-0.507604
1176,-0.000424,-0.274766,-0.507604
1177,-0.000423,-0.277802,-0.507604
1178,-0.000422,-0.277802,-0.507604
1179,-0.000421,-0.280838,-0.507604
1180,-0.00042,-0.283874,-0.507604
1181,-0.000419,-0.285392,-0.506086
1182,-0.000418,-0.28691,-0.509122
1183,-0.000417,-0.291465,-0.506086
1184,-0.000416,-0.291465,-0.506086
1185,-0.000415,-0.294501,-0.506086
1186,-0.000414,-0.297537,-0.506086
1187,-0.000413,-0.299055,-0.507604
1188,-0.000412,-0.302091,-0.506086
1189,-0.000411,-0.302091,-0.507604
1190,-0.00041,-0.305127,-0.507604
1191,-0.000409,-0.305127,-0.507604
1192,-0.000408,-0.308163,-0.507604
1193,-0.000407,-0.312717,-0.507604
1194,-0.000406,-0.314235,-0.507604
1195,-0.000405,-0.315753,-0.507604
1196,-0.000404,-0.317271,-0.507604
1197,-0.000403,-0.320307,-0.50305
1198,-0.000402,-0.321825,-0.507604
1199,-0.000401,-0.323343,-0.507604
1200,-0.0004,-0.324861,-0.507604
1201,-0.000399,-0.324861,-0.507604
1202,-0.000398,-0.327898,-0.506086
1203,-0.000397,-0.329416,-0.509122
1204,-0.000396,-0.330934,-0.50305
1205,-0.000395,-0.332452,-0.507604
1206,-0.000394,-0.33397,-0.507604
1207,-0.000393,-0.338524,-0.507604
1208,-0.000392,-0.340042,-0.507604
1209,-0.000391,-0.34156,-0.507604
1210,-0.00039,-0.343078,-0.507604
1211,-0.000389,-0.344596,-0.507604
1212,-0.000388,-0.346114,-0.507604
1213,-0.000387,-0.347632,-0.509122
1214,-0.000386,-0.347632,-0.506086
1215,-0.000385,-0.34915,-0.507604
1216,-0.000384,-0.352186,-0.507604
1217,-0.000383,-0.353704,-0.507604
1218,-0.000382,-0.353704,-0.507604
1219,-0.000381,-0.35674,-0.507604
1220,-0.00038,-0.35674,-0.507604
1221,-0.000379,-0.358258,-0.507604
1222,-0.000378,-0.358258,-0.506086
1223,-0.000377,-0.362813,-0.509122
1224,-0.000376,-0.364331,-0.506086
1225,-0.000375,-0.365849,-0.506086
1226,-0.000374,-0.367367,-0.509122
1227,-0.000373,-0.368885,-0.506086
1228,-0.000372,-0.370403,-0.507604
1229,-0.000371,-0.370403,-0.507604
1230,-0.00037,-0.371921,-0.509122
1231,-0.000369,-0.371921,-0.506086
1232,-0.000368,-0.374957,-0.507604
1233,-0.000367,-0.376475,-0.507604
1234,-0.000366,-0.376475,-0.507604
1235,-0.000365,-0.377993,-0.506086
1236,-0.000364,-0.379511,-0.509122
1237,-0.000363,-0.381029,-0.507604
1238,-0.000362,-0.381029,-0.507604
1239,-0.000361,-0.385583,-0.507604
1240,-0.00036,-0.382547,-0.507604
1241,-0.000359,-0.387101,-0.507604
1242,-0.000358,-0.388619,-0.507604
1243,-0.000357,-0.387101,-0.507604
1244,-0.000356,-0.390137,-0.507604
1245,-0.000355,-0.390137,-0.50305
1246,-0.000354,-0.391655,-0.507604
1247,-0.000353,-0.391655,-0.507604
1248,-0.000352,-0.394692,-0.507604
1249,-0.000351,-0.39621,-0.507604
1250,-0.00035,-0.394692,-0.507604
1251,-0.000349,-0.397728,-0.507604
1252,-0.000348,-0.397728,-0.506086
1253,-0.000347,-0.399246,-0.506086
1254,-0.000346,-0.400764,-0.509122
1255,-0.000345,-0.400764,-0.507604
1256,-0.000344,-0.400764,-0.506086
1257,-0.000343,-0.4038,-0.509122
1258,-0.000342,-0.4038,-0.507604
1259,-0.000341,-0.4038,-0.507604
1260,-0.00034,-0.408354,-0.507604
1261,-0.000339,-0.405318,-0.509122
1262,-0.000338,-0.409872,-0.506086
1263,-0.000337,-0.409872,-0.506086
1264,-0.000336,-0.409872,-0.509122
1265,-0.000335,-0.412908,-0.507604
1266,-0.000334,-0.412908,-0.506086
1267,-0.000333,-0.412908,-0.507604
1268,-0.000332,-0.415944,-0.510641
1269,-0.000331,-0.415944,-0.506086
1270,-0.00033,-0.417462,-0.509122
1271,-0.000329,-0.417462,-0.507604
1272,-0.000328,-0.41898,-0.507604
1273,-0.000327,-0.41898,-0.507604
1274,-0.000326,-0.420498,-0.507604
1275,-0.000325,-0.420498,-0.507604
1276,-0.000324,-0.420498,-0.507604
1277,-0.000323,-0.423534,-0.507604
1278,-0.000322,-0.423534,-0.509122
1279,-0.000321,-0.423534,-0.507604
1280,-0.00032,-0.425052,-0.507604
1281,-0.000319,-0.425052,-0.507604
1282,-0.000318,-0.42657,-0.509122
1283,-0.000317,-0.425052,-0.506086
1284,-0.000316,-0.428088,-0.507604
1285,-0.000315,-0.42657,-0.507604
1286,-0.000314,-0.429607,-0.507604
1287,-0.000313,-0.429607,-0.507604
1288,-0.000312,-0.429607,-0.507604
1289,-0.000311,-0.429607,-0.507604
1290,-0.00031,-0.434161,-0.507604
1291,-0.000309,-0.434161,-0.507604
1292,-0.000308,-0.434161,-0.507604
1293,-0.000307,-0.435679,-0.509122
1294,-0.000306,-0.435679,-0.509122
1295,-0.000305,-0.434161,-0.509122
1296,-0.000304,-0.437197,-0.507604
1297,-0.000303,-0.435679,-0.507604
1298,-0.000302,-0.438715,-0.507604
1299,-0.000301,-0.438715,-0.507604
1300,-0.0003,-0.440233,-0.507604
1301,-0.000299,-0.440233,-0.507604
1302,-0.000298,-0.438715,-0.507604
1303,-0.000297,-0.441751,-0.507604
1304,-0.000296,-0.440233,-0.507604
1305,-0.000295,-0.443269,-0.507604
1306,-0.000294,-0.441751,-0.507604
1307,-0.000293,-0.444787,-0.509122
1308,-0.000292,-0.444787,-0.506086
1309,-0.000291,-0.444787,-0.510641
1310,-0.00029,-0.444787,-0.507604
1311,-0.000289,-0.446305,-0.507604
1312,-0.000288,-0.444787,-0.510641
1313,-0.000287,-0.447823,-0.507604
1314,-0.000286,-0.447823,-0.509122
1315,-0.000285,-0.446305,-0.509122
1316,-0.000284,-0.447823,-0.507604
1317,-0.000283,-0.449341,-0.507604
1318,-0.000282,-0.449341,-0.507604
1319,-0.000281,-0.450859,-0.507604
1320,-0.00028,-0.449341,-0.507604
1321,-0.000279,-0.452377,-0.507604
1322,-0.000278,-0.452377,-0.509122
1323,-0.000277,-0.452377,-0.509122
1324,-0.000276,-0.450859,-0.506086
1325,-0.000275,-0.453895,-0.509122
1326,-0.000274,-0.453895,-0.509122
1327,-0.000273,-0.452377,-0.509122
1328,-0.000272,-0.456931,-0.509122
1329,-0.000271,-0.456931,-0.509122
1330,-0.00027,-0.456931,-0.509122
1331,-0.000269,-0.458449,-0.509122
1332,-0.000268,-0.458449,-0.509122
1333,-0.000267,-0.458449,-0.509122
1334,-0.000266,-0.458449,-0.507604
1335,-0.000265,-0.459967,-0.507604
1336,-0.000264,-0.459967,-0.509122
1337,-0.000263,-0.459967,-0.507604
1338,-0.000262,-0.461485,-0.510641
1339,-0.000261,-0.461485,-0.507604
1340,-0.00026,-0.461485,-0.507604
1341,-0.000259,-0.461485,-0.507604
1342,-0.000258,-0.463004,-0.507604
1343,-0.000257,-0.463004,-0.509122
1344,-0.000256,-0.463004,-0.507604
1345,-0.000255,-0.464522,-0.507604
1346,-0.000254,-0.464522,-0.507604
1347,-0.000253,-0.464522,-0.507604
1348,-0.000252,-0.464522,-0.507604
1349,-0.000251,-0.464522,-0.507604
1350,-0.00025,-0.464522,-0.507604
1351,-0.000249,-0.46604,-0.507604
1352,-0.000248,-0.46604,-0.507604
1353,-0.000247,-0.467558,-0.507604
1354,-0.000246,-0.467558,-0.507604
1355,-0.000245,-0.467558,-0.507604
1356,-0.000244,-0.467558,-0.507604
1357,-0.000243,-0.467558,-0.507604
1358,-0.000242,-0.469076,-0.507604
1359,-0.000241,-0.469076,-0.507604
1360,-0.00024,-0.469076,-0.507604
1361,-0.000239,-0.467558,-0.507604
1362,-0.000238,-0.469076,-0.507604
1363,-0.000237,-0.470594,-0.507604
1364,-0.000236,-0.470594,-0.509122
1365,-0.000235,-0.470594,-0.507604
1366,-0.000234,-0.470594,-0.507604
1367,-0.000233,-0.472112,-0.507604
1368,-0.000232,-0.472112,-0.507604
1369,-0.000231,-0.472112,-0.507604
1370,-0.00023,-0.472112,-0.507604
1371,-0.000229,-0.472112,-0.507604
1372,-0.000228,-0.47363,-0.507604
1373,-0.000227,-0.47363,-0.507604
1374,-0.000226,-0.47363,-0.509122
1375,-0.000225,-0.47363,-0.506086
1376,-0.000224,-0.472112,-0.506086
1377,-0.000223,-0.47363,-0.509122
1378,-0.000222,-0.475148,-0.507604
1379,-0.000221,-0.475148,-0.507604
1380,-0.00022,-0.475148,-0.507604
1381,-0.000219,-0.475148,-0.507604
1382,-0.000218,-0.476666,-0.509122
1383,-0.000217,-0.476666,-0.506086
1384,-0.000216,-0.476666,-0.510641
1385,-0.000215,-0.476666,-0.509122
1386,-0.000214,-0.475148,-0.506086
1387,-0.000213,-0.478184,-0.510641
1388,-0.000212,-0.476666,-0.507604
1389,-0.000211,-0.476666,-0.507604
1390,-0.00021,-0.478184,-0.507604
1391,-0.000209,-0.478184,-0.507604
1392,-0.000208,-0.478184,-0.507604
1393,-0.000207,-0.478184,-0.507604
1394,-0.000206,-0.478184,-0.507604
1395,-0.000205,-0.48122,-0.507604
1396,-0.000204,-0.48122,-0.507604
1397,-0.000203,-0.48122,-0.507604
1398,-0.000202,-0.48122,-0.507604
1399,-0.000201,-0.48122,-0.509122
1400,-0.0002,-0.48122,-0.507604
1401,-0.000199,-0.482738,-0.507604
1402,-0.000198,-0.482738,-0.507604
1403,-0.000197,-0.482738,-0.509122
1404,-0.000196,-0.482738,-0.509122
1405,-0.000195,-0.482738,-0.509122
1406,-0.000194,-0.482738,-0.507604
1407,-0.000193,-0.482738,-0.507604
1408,-0.000192,-0.484256,-0.509122
1409,-0.000191,-0.482738,-0.507604
1410,-0.00019,-0.484256,-0.507604
1411,-0.000189,-0.484256,-0.507604
1412,-0.000188,-0.484256,-0.507604
1413,-0.000187,-0.484256,-0.507604
1414,-0.000186,-0.484256,-0.509122
1415,-0.000185,-0.484256,-0.510641
1416,-0.000184,-0.485774,-0.507604
1417,-0.000183,-0.485774,-0.509122
1418,-0.000182,-0.485774,-0.510641
1419,-0.000181,-0.485774,-0.507604
1420,-0.00018,-0.485774,-0.509122
1421,-0.000179,-0.485774,-0.509122
1422,-0.000178,-0.485774,-0.507604
1423,-0.000177,-0.487292,-0.507604
1424,-0.000176,-0.487292,-0.509122
1425,-0.000175,-0.487292,-0.510641
1426,-0.000174,-0.487292,-0.509122
1427,-0.000173,-0.487292,-0.507604
1428,-0.000172,-0.487292,-0.509122
1429,-0.000171,-0.48881,-0.507604
1430,-0.00017,-0.487292,-0.507604
1431,-0.000169,-0.487292,-0.510641
1432,-0.000168,-0.48881,-0.507604
1433,-0.000167,-0.485774,-0.507604
1434,-0.000166,-0.48881,-0.507604
1435,-0.000165,-0.48881,-0.507604
1436,-0.000164,-0.48881,-0.507604
1437,-0.000163,-0.48881,-0.507604
1438,-0.000162,-0.48881,-0.509122
1439,-0.000161,-0.48881,-0.507604
1440,-0.00016,-0.48881,-0.507604
1441,-0.000159,-0.48881,-0.507604
1442,-0.000158,-0.48881,-0.507604
1443,-0.000157,-0.48881,-0.509122
1444,-0.000156,-0.490328,-0.506086
1445,-0.000155,-0.490328,-0.507604
1446,-0.000154,-0.490328,-0.507604
1447,-0.000153,-0.490328,-0.507604
1448,-0.000152,-0.490328,-0.509122
1449,-0.000151,-0.490328,-0.507604
1450,-0.00015,-0.490328,-0.509122
1451,-0.000149,-0.490328,-0.509122
1452,-0.000148,-0.490328,-0.507604
1453,-0.000147,-0.490328,-0.509122
1454,-0.000146,-0.491846,-0.509122
1455,-0.000145,-0.491846,-0.509122
1456,-0.000144,-0.491846,-0.507604
1457,-0.000143,-0.491846,-0.507604
1458,-0.000142,-0.491846,-0.507604
1459,-0.000141,-0.491846,-0.507604
1460,-0.00014,-0.491846,-0.507604
1461,-0.000139,-0.491846,-0.509122
1462,-0.000138,-0.491846,-0.506086
1463,-0.000137,-0.493364,-0.509122
1464,-0.000136,-0.491846,-0.509122
1465,-0.000135,-0.493364,-0.507604
1466,-0.000134,-0.493364,-0.507604
1467,-0.000133,-0.493364,-0.507604
1468,-0.000132,-0.493364,-0.507604
1469,-0.000131,-0.493364,-0.507604
1470,-0.00013,-0.493364,-0.507604
1471,-0.000129,-0.493364,-0.507604
1472,-0.000128,-0.493364,-0.509122
1473,-0.000127,-0.493364,-0.509122
1474,-0.000126,-0.493364,-0.509122
1475,-0.000125,-0.493364,-0.506086
1476,-0.000124,-0.493364,-0.509122
1477,-0.000123,-0.494882,-0.509122
1478,-0.000122,-0.491846,-0.509122
1479,-0.000121,-0.494882,-0.509122
1480,-0.00012,-0.494882,-0.507604
1481,-0.000119,-0.494882,-0.509122
1482,-0.000118,-0.494882,-0.509122
1483,-0.000117,-0.494882,-0.509122
1484,-0.000116,-0.494882,-0.509122
1485,-0.000115,-0.494882,-0.509122
1486,-0.000114,-0.494882,-0.507604
1487,-0.000113,-0.494882,-0.507604
1488,-0.000112,-0.494882,-0.507604
1489,-0.000111,-0.494882,-0.507604
1490,-0.00011,-0.494882,-0.507604
1491,-0.000109,-0.494882,-0.507604
1492,-0.000108,-0.494882,-0.509122
1493,-0.000107,-0.494882,-0.509122
1494,-0.000106,-0.4964,-0.509122
1495,-0.000105,-0.494882,-0.509122
1496,-0.000104,-0.4964,-0.507604
1497,-0.000103,-0.4964,-0.507604
1498,-0.000102,-0.4964,-0.509122
1499,-0.000101,-0.4964,-0.509122
1500,-0.0001,-0.4964,-0.509122
1501,-9.9e-05,-0.4964,-0.507604
1502,-9.8e-05,-0.4964,-0.507604
1503,-9.7e-05,-0.4964,-0.507604
1504,-9.6e-05,-0.4964,-0.509122
1505,-9.5e-05,-0.4964,-0.507604
1506,-9.4e-05,-0.4964,-0.507604
1507,-9.3e-05,-0.4964,-0.510641
1508,-9.2e-05,-0.497919,-0.506086
1509,-9.1e-05,-0.4964,-0.509122
1510,-9e-05,-0.4964,-0.509122
1511,-8.9e-05,-0.4964,-0.507604
1512,-8.8e-05,-0.4964,-0.509122
1513,-8.7e-05,-0.4964,-0.507604
1514,-8.6e-05,-0.497919,-0.509122
1515,-8.5e-05,-0.497919,-0.509122
1516,-8.4e-05,-0.497919,-0.507604
1517,-8.3e-05,-0.497919,-0.510641
1518,-8.2e-05,-0.497919,-0.506086
1519,-8.1e-05,-0.497919,-0.509122
1520,-8e-05,-0.497919,-0.509122
1521,-7.9e-05,-0.497919,-0.507604
1522,-7.8e-05,-0.497919,-0.509122
1523,-7.7e-05,-0.497919,-0.507604
1524,-7.6e-05,-0.497919,-0.507604
1525,-7.5e-05,-0.497919,-0.510641
1526,-7.4e-05,-0.497919,-0.507604
1527,-7.3e-05,-0.497919,-0.507604
1528,-7.2e-05,-0.497919,-0.507604
1529,-7.1e-05,-0.497919,-0.507604
1530,-7e-05,-0.497919,-0.507604
1531,-6.9e-05,-0.497919,-0.501532
1532,-6.8e-05,-0.499437,-0.569844
1533,-6.7e-05,-0.497919,0.252936
1534,-6.6e-05,-0.487292,0.479124
1535,-6.5e-05,-0.476666,0.489751
1536,-6.4e-05,-0.467558,0.489751
1537,-6.3e-05,-0.458449,0.491269
1538,-6.2e-05,-0.447823,0.491269
1539,-6.1e-05,-0.438715,0.491269
1540,-6e-05,-0.428088,0.489751
1541,-5.9e-05,-0.422016,0.489751
1542,-5.8e-05,-0.41139,0.491269
1543,-5.7e-05,-0.400764,0.486715
1544,-5.6e-05,-0.394692,0.489751
1545,-5.5e-05,-0.382547,0.489751
1546,-5.4e-05,-0.373439,0.491269
1547,-5.3e-05,-0.365849,0.491269
1548,-5.2e-05,-0.358258,0.491269
1549,-5.1e-05,-0.34915,0.491269
1550,-5e-05,-0.340042,0.491269
1551,-4.9e-05,-0.330934,0.491269
1552,-4.8e-05,-0.324861,0.492787
1553,-4.7e-05,-0.314235,0.491269
1554,-4.6e-05,-0.306645,0.491269
1555,-4.5e-05,-0.299055,0.491269
1556,-4.4e-05,-0.291465,0.491269
1557,-4.3e-05,-0.282356,0.491269
1558,-4.2e-05,-0.276284,0.491269
1559,-4.1e-05,-0.267176,0.492787
1560,-4e-05,-0.259586,0.491269
1561,-3.9e-05,-0.251995,0.492787
1562,-3.8e-05,-0.244405,0.492787
1563,-3.7e-05,-0.235297,0.492787
1564,-3.6e-05,-0.229225,0.492787
1565,-3.5e-05,-0.223153,0.494305
1566,-3.4e-05,-0.214044,0.492787
1567,-3.3e-05,-0.206454,0.492787
1568,-3.2e-05,-0.200382,0.492787
1569,-3.1e-05,-0.19431,0.492787
1570,-3e-05,-0.185201,0.492787
1571,-2.9e-05,-0.179129,0.492787
1572,-2.8e-05,-0.173057,0.492787
1573,-2.7e-05,-0.165467,0.492787
1574,-2.6e-05,-0.159395,0.492787
1575,-2.5e-05,-0.153322,0.492787
1576,-2.4e-05,-0.14725,0.492787
1577,-2.3e-05,-0.141178,0.492787
1578,-2.2e-05,-0.13207,0.492787
1579,-2.1e-05,-0.127516,0.492787
1580,-2e-05,-0.122962,0.492787
1581,-1.9e-05,-0.115371,0.492787
1582,-1.8e-05,-0.109299,0.492787
1583,-1.7e-05,-0.103227,0.492787
1584,-1.6e-05,-0.0956368,0.492787
1585,-1.5e-05,-0.0895646,0.492787
1586,-1.4e-05,-0.0850105,0.492787
1587,-1.3e-05,-0.0789383,0.495823
1588,-1.2e-05,-0.0743842,0.492787
1589,-1.1e-05,-0.0667939,0.494305
1590,-1e-05,-0.0622398,0.492787
1591,-9e-06,-0.0561676,0.494305
1592,-8e-06,-0.0516135,0.494305
1593,-7e-06,-0.0440233,0.494305
1594,-6e-06,-0.0409872,0.492787
1595,-5e-06,-0.034915,0.494305
1596,-4e-06,-0.0303609,0.494305
1597,-3e-06,-0.0227707,0.494305
1598,-2e-06,-0.0182165,0.492787
1599,-1e-06,-0.0136624,0.494305
1600,0,-0.00910827,0.491269
1601,1e-06,-0.00455413,0.494305
1602,2e-06,0.00151804,0.492787
1603,3e-06,0.00759022,0.494305
1604,4e-06,0.0121444,0.494305
1605,5e-06,0.0166985,0.495823
1606,6e-06,0.0197346,0.494305
1607,7e-06,0.0258068,0.495823
1608,8e-06,0.0303609,0.495823
1609,9e-06,0.034915,0.492787
1610,1e-05,0.0394692,0.497341
1611,1.1e-05,0.0455413,0.494305
1612,1.2e-05,0.0500955,0.494305
1613,1.3e-05,0.0531316,0.495823
1614,1.4e-05,0.0576857,0.492787
1615,1.5e-05,0.0607218,0.495823
1616,1.6e-05,0.0667939,0.495823
1617,1.7e-05,0.068312,0.497341
1618,1.8e-05,0.0759022,0.495823
1619,1.9e-05,0.0789383,0.495823
1620,2e-05,0.0834924,0.497341
1621,2.1e-05,0.0865285,0.495823
1622,2.2e-05,0.0895646,0.495823
1623,2.3e-05,0.0941187,0.495823
1624,2.4e-05,0.100191,0.495823
1625,2.5e-05,0.103227,0.497341
1626,2.6e-05,0.107781,0.497341
1627,2.7e-05,0.110817,0.497341
1628,2.8e-05,0.113853,0.497341
1629,2.9e-05,0.119925,0.497341
1630,3e-05,0.122962,0.497341
1631,3.1e-05,0.125998,0.497341
1632,3.2e-05,0.13207,0.497341
1633,3.3e-05,0.133588,0.497341
1634,3.4e-05,0.136624,0.497341
1635,3.5e-05,0.13966,0.495823
1636,3.6e-05,0.144214,0.495823
1637,3.7e-05,0.14725,0.497341
1638,3.8e-05,0.151804,0.497341
1639,3.9e-05,0.154841,0.497341
1640,4e-05,0.157877,0.495823
1641,4.1e-05,0.160913,0.497341
1642,4.2e-05,0.165467,0.497341
1643,4.3e-05,0.165467,0.494305
1644,4.4e-05,0.171539,0.497341
1645,4.5e-05,0.174575,0.495823
1646,4.6e-05,0.177611,0.497341
1647,4.7e-05,0.180647,0.495823
1648,4.8e-05,0.183683,0.495823
1649,4.9e-05,0.186719,0.495823
1650,5e-05,0.189756,0.495823
1651,5.1e-05,0.19431,0.495823
1652,5.2e-05,0.197346,0.497341
1653,5.3e-05,0.198864,0.495823
1654,5.4e-05,0.2019,0.495823
1655,5.5e-05,0.206454,0.495823
1656,5.6e-05,0.206454,0.495823
1657,5.7e-05,0.211008,0.498859
1658,5.8e-05,0.215562,0.495823
1659,5.9e-05,0.218598,0.495823
1660,6e-05,0.218598,0.495823
1661,6.1e-05,0.223153,0.495823
1662,6.2e-05,0.226189,0.495823
1663,6.3e-05,0.226189,0.495823
1664,6.4e-05,0.230743,0.495823
1665,6.5e-05,0.232261,0.495823
1666,6.6e-05,0.235297,0.495823
1667,6.7e-05,0.236815,0.495823
1668,6.8e-05,0.241369,0.495823
1669,6.9e-05,0.242887,0.495823
1670,7e-05,0.245923,0.495823
1671,7.1e-05,0.248959,0.495823
1672,7.2e-05,0.248959,0.495823
1673,7.3e-05,0.253513,0.495823
1674,7.4e-05,0.253513,0.495823
1675,7.5e-05,0.256549,0.495823
1676,7.6e-05,0.259586,0.495823
1677,7.7e-05,0.261104,0.495823
1678,7.8e-05,0.265658,0.495823
1679,7.9e-05,0.267176,0.495823
1680,8e-05,0.268694,0.495823
1681,8.1e-05,0.27173,0.495823
1682,8.2e-05,0.273248,0.495823
1683,8.3e-05,0.274766,0.495823
1684,8.4e-05,0.277802,0.495823
1685,8.5e-05,0.277802,0.495823
1686,8.6e-05,0.280838,0.495823
1687,8.7e-05,0.283874,0.495823
1688,8.8e-05,0.285392,0.495823
1689,8.9e-05,0.288428,0.495823
1690,9e-05,0.291465,0.495823
1691,9.1e-05,0.292983,0.495823
1692,9.2e-05,0.292983,0.498859
1693,9.3e-05,0.296019,0.495823
1694,9.4e-05,0.299055,0.495823
1695,9.5e-05,0.300573,0.497341
1696,9.6e-05,0.300573,0.494305
1697,9.7e-05,0.303609,0.497341
1698,9.8e-05,0.305127,0.495823
1699,9.9e-05,0.308163,0.495823
1700,0.0001,0.311199,0.495823
1701,0.000101,0.312717,0.495823
1702,0.000102,0.314235,0.495823
1703,0.000103,0.315753,0.498859
1704,0.000104,0.317271,0.494305
1705,0.000105,0.317271,0.497341
1706,0.000106,0.320307,0.497341
1707,0.000107,0.321825,0.494305
1708,0.000108,0.323343,0.497341
1709,0.000109,0.324861,0.497341
1710,0.00011,0.32638,0.495823
1711,0.000111,0.327898,0.495823
1712,0.000112,0.330934,0.497341
1713,0.000113,0.330934,0.494305
1714,0.000114,0.332452,0.497341
1715,0.000115,0.335488,0.495823
1716,0.000116,0.337006,0.495823
1717,0.000117,0.338524,0.495823
1718,0.000118,0.340042,0.495823
1719,0.000119,0.34156,0.495823
1720,0.00012,0.343078,0.495823
1721,0.000121,0.343078,0.495823
1722,0.000122,0.346114,0.495823
1723,0.000123,0.347632,0.497341
1724,0.000124,0.347632,0.495823
1725,0.000125,0.34915,0.497341
1726,0.000126,0.352186,0.494305
1727,0.000127,0.352186,0.497341
1728,0.000128,0.353704,0.497341
1729,0.000129,0.353704,0.497341
1730,0.00013,0.35674,0.495823
1731,0.000131,0.359776,0.495823
1732,0.000132,0.361295,0.495823
1733,0.000133,0.361295,0.495823
1734,0.000134,0.362813,0.497341
1735,0.000135,0.362813,0.497341
1736,0.000136,0.365849,0.495823
1737,0.000137,0.365849,0.495823
1738,0.000138,0.367367,0.495823
1739,0.000139,0.368885,0.497341
1740,0.00014,0.368885,0.494305
1741,0.000141,0.371921,0.497341
1742,0.000142,0.371921,0.497341
1743,0.000143,0.371921,0.494305
1744,0.000144,0.374957,0.497341
1745,0.000145,0.376475,0.497341
1746,0.000146,0.376475,0.497341
1747,0.000147,0.376475,0.495823
1748,0.000148,0.379511,0.497341
1749,0.000149,0.381029,0.497341
1750,0.00015,0.379511,0.497341
1751,0.000151,0.384065,0.497341
1752,0.000152,0.384065,0.497341
1753,0.000153,0.385583,0.495823
1754,0.000154,0.385583,0.497341
1755,0.000155,0.388619,0.497341
1756,0.000156,0.388619,0.497341
1757,0.000157,0.390137,0.495823
1758,0.000158,0.390137,0.497341
1759,0.000159,0.390137,0.497341
1760,0.00016,0.393173,0.495823
1761,0.000161,0.393173,0.497341
1762,0.000162,0.394692,0.497341
1763,0.000163,0.39621,0.497341
1764,0.000164,0.39621,0.497341
1765,0.000165,0.397728,0.497341
1766,0.000166,0.397728,0.497341
1767,0.000167,0.399246,0.497341
1768,0.000168,0.399246,0.497341
1769,0.000169,0.400764,0.497341
1770,0.00017,0.400764,0.497341
1771,0.000171,0.400764,0.497341
1772,0.000172,0.4038,0.497341
1773,0.000173,0.402282,0.497341
1774,0.000174,0.406836,0.497341
1775,0.000175,0.4038,0.497341
1776,0.000176,0.408354,0.497341
1777,0.000177,0.406836,0.497341
1778,0.000178,0.409872,0.497341
1779,0.000179,0.409872,0.497341
1780,0.00018,0.41139,0.498859
1781,0.000181,0.409872,0.495823
1782,0.000182,0.412908,0.498859
1783,0.000183,0.414426,0.497341
1784,0.000184,0.414426,0.497341
1785,0.000185,0.414426,0.497341
1786,0.000186,0.415944,0.497341
1787,0.000187,0.414426,0.498859
1788,0.000188,0.417462,0.497341
1789,0.000189,0.417462,0.497341
1790,0.00019,0.417462,0.497341
1791,0.000191,0.41898,0.497341
1792,0.000192,0.420498,0.498859
1793,0.000193,0.420498,0.497341
1794,0.000194,0.420498,0.497341
1795,0.000195,0.422016,0.497341
1796,0.000196,0.420498,0.497341
1797,0.000197,0.423534,0.497341
1798,0.000198,0.422016,0.497341
1799,0.000199,0.425052,0.497341
1800,0.0002,0.425052,0.497341
1801,0.000201,0.425052,0.495823
1802,0.000202,0.42657,0.495823
1803,0.000203,0.42657,0.498859
1804,0.000204,0.42657,0.497341
1805,0.000205,0.428088,0.497341
1806,0.000206,0.42657,0.497341
1807,0.000207,0.431125,0.497341
1808,0.000208,0.431125,0.497341
1809,0.000209,0.431125,0.497341
1810,0.00021,0.432643,0.497341
1811,0.000211,0.431125,0.497341
1812,0.000212,0.432643,0.497341
1813,0.000213,0.434161,0.497341
1814,0.000214,0.434161,0.497341
1815,0.000215,0.432643,0.497341
1816,0.000216,0.435679,0.497341
1817,0.000217,0.435679,0.497341
1818,0.000218,0.434161,0.497341
1819,0.000219,0.437197,0.497341
1820,0.00022,0.437197,0.497341
1821,0.000221,0.437197,0.497341
1822,0.000222,0.437197,0.497341
1823,0.000223,0.438715,0.497341
1824,0.000224,0.438715,0.497341
1825,0.000225,0.440233,0.495823
1826,0.000226,0.440233,0.497341
1827,0.000227,0.440233,0.497341
1828,0.000228,0.441751,0.497341
1829,0.000229,0.441751,0.495823
1830,0.00023,0.441751,0.497341
1831,0.000231,0.441751,0.498859
1832,0.000232,0.443269,0.495823
1833,0.000233,0.441751,0.497341
1834,0.000234,0.444787,0.497341
1835,0.000235,0.443269,0.497341
1836,0.000236,0.444787,0.497341
1837,0.000237,0.444787,0.497341
1838,0.000238,0.444787,0.497341
1839,0.000239,0.446305,0.497341
1840,0.00024,0.446305,0.497341
1841,0.000241,0.446305,0.497341
1842,0.000242,0.444787,0.495823
1843,0.000243,0.447823,0.495823
1844,0.000244,0.447823,0.498859
1845,0.000245,0.446305,0.495823
1846,0.000246,0.449341,0.495823
1847,0.000247,0.449341,0.495823
1848,0.000248,0.449341,0.498859
1849,0.000249,0.449341,0.495823
1850,0.00025,0.449341,0.495823
1851,0.000251,0.449341,0.495823
1852,0.000252,0.450859,0.495823
1853,0.000253,0.449341,0.495823
1854,0.000254,0.452377,0.497341
1855,0.000255,0.452377,0.495823
1856,0.000256,0.452377,0.495823
1857,0.000257,0.452377,0.497341
1858,0.000258,0.450859,0.495823
1859,0.000259,0.452377,0.495823
1860,0.00026,0.452377,0.495823
1861,0.000261,0.455413,0.498859
1862,0.000262,0.455413,0.495823
1863,0.000263,0.455413,0.495823
1864,0.000264,0.456931,0.497341
1865,0.000265,0.456931,0.495823
1866,0.000266,0.456931,0.494305
1867,0.000267,0.456931,0.497341
1868,0.000268,0.456931,0.495823
1869,0.000269,0.456931,0.495823
1870,0.00027,0.458449,0.495823
1871,0.000271,0.458449,0.497341
1872,0.000272,0.459967,0.497341
1873,0.000273,0.458449,0.494305
1874,0.000274,0.458449,0.497341
1875,0.000275,0.459967,0.495823
1876,0.000276,0.459967,0.495823
1877,0.000277,0.459967,0.495823
1878,0.000278,0.459967,0.495823
1879,0.000279,0.461485,0.495823
1880,0.00028,0.461485,0.495823
1881,0.000281,0.461485,0.497341
1882,0.000282,0.461485,0.495823
1883,0.000283,0.463004,0.495823
1884,0.000284,0.463004,0.495823
1885,0.000285,0.463004,0.497341
1886,0.000286,0.463004,0.494305
1887,0.000287,0.463004,0.497341
1888,0.000288,0.463004,0.497341
1889,0.000289,0.464522,0.497341
1890,0.00029,0.464522,0.497341
1891,0.000291,0.464522,0.497341
1892,0.000292,0.464522,0.497341
1893,0.000293,0.464522,0.497341
1894,0.000294,0.464522,0.497341
1895,0.000295,0.464522,0.497341
1896,0.000296,0.464522,0.497341
1897,0.000297,0.46604,0.497341
1898,0.000298,0.46604,0.497341
1899,0.000299,0.46604,0.497341
1900,0.0003,0.46604,0.497341
1901,0.000301,0.46604,0.497341
1902,0.000302,0.46604,0.497341
1903,0.000303,0.467558,0.497341
1904,0.000304,0.467558,0.497341
1905,0.000305,0.467558,0.497341
1906,0.000306,0.467558,0.497341
1907,0.000307,0.469076,0.497341
1908,0.000308,0.467558,0.495823
1909,0.000309,0.467558,0.497341
1910,0.00031,0.469076,0.495823
1911,0.000311,0.469076,0.497341
1912,0.000312,0.469076,0.497341
1913,0.000313,0.469076,0.498859
1914,0.000314,0.469076,0.497341
1915,0.000315,0.472112,0.497341
1916,0.000316,0.469076,0.497341
1917,0.000317,0.470594,0.498859
1918,0.000318,0.470594,0.498859
1919,0.000319,0.470594,0.495823
1920,0.00032,0.470594,0.498859
1921,0.000321,0.470594,0.498859
1922,0.000322,0.470594,0.495823
1923,0.000323,0.470594,0.497341
1924,0.000324,0.472112,0.498859
1925,0.000325,0.472112,0.497341
1926,0.000326,0.472112,0.497341
1927,0.000327,0.472112,0.497341
1928,0.000328,0.472112,0.500377
1929,0.000329,0.472112,0.497341
1930,0.00033,0.472112,0.497341
1931,0.000331,0.472112,0.498859
1932,0.000332,0.47363,0.497341
1933,0.000333,0.47363,0.498859
1934,0.000334,0.47363,0.497341
1935,0.000335,0.47363,0.497341
1936,0.000336,0.47363,0.497341
1937,0.000337,0.47363,0.498859
1938,0.000338,0.47363,0.498859
1939,0.000339,0.47363,0.497341
1940,0.00034,0.47363,0.498859
1941,0.000341,0.47363,0.498859
1942,0.000342,0.475148,0.495823
1943,0.000343,0.475148,0.498859
1944,0.000344,0.475148,0.498859
1945,0.000345,0.475148,0.498859
1946,0.000346,0.475148,0.497341
1947,0.000347,0.475148,0.497341
1948,0.000348,0.475148,0.497341
1949,0.000349,0.475148,0.498859
1950,0.00035,0.475148,0.497341
1951,0.000351,0.475148,0.497341
1952,0.000352,0.475148,0.497341
1953,0.000353,0.475148,0.497341
1954,0.000354,0.476666,0.500377
1955,0.000355,0.476666,0.497341
1956,0.000356,0.476666,0.497341
1957,0.000357,0.476666,0.497341
1958,0.000358,0.476666,0.497341
1959,0.000359,0.476666,0.498859
1960,0.00036,0.476666,0.497341
1961,0.000361,0.476666,0.498859
1962,0.000362,0.476666,0.497341
1963,0.000363,0.48122,0.497341
1964,0.000364,0.476666,0.497341
1965,0.000365,0.476666,0.497341
1966,0.000366,0.476666,0.497341
1967,0.000367,0.479702,0.497341
1968,0.000368,0.479702,0.497341
1969,0.000369,0.479702,0.497341
1970,0.00037,0.479702,0.498859
1971,0.000371,0.479702,0.497341
1972,0.000372,0.479702,0.497341
1973,0.000373,0.479702,0.497341
1974,0.000374,0.479702,0.497341
1975,0.000375,0.479702,0.497341
1976,0.000376,0.479702,0.495823
1977,0.000377,0.479702,0.498859
1978,0.000378,0.479702,0.495823
1979,0.000379,0.479702,0.497341
1980,0.00038,0.479702,0.497341
1981,0.000381,0.48122,0.497341
1982,0.000382,0.476666,0.497341
1983,0.000383,0.48122,0.497341
1984,0.000384,0.48122,0.497341
1985,0.000385,0.48122,0.497341
1986,0.000386,0.48122,0.497341
1987,0.000387,0.48122,0.497341
1988,0.000388,0.48122,0.497341
1989,0.000389,0.48122,0.497341
1990,0.00039,0.48122,0.497341
1991,0.000391,0.48122,0.497341
1992,0.000392,0.48122,0.497341
1993,0.000393,0.48122,0.497341
1994,0.000394,0.48122,0.497341
1995,0.000395,0.48122,0.497341
1996,0.000396,0.48122,0.497341
1997,0.000397,0.48122,0.497341
1998,0.000398,0.48122,0.497341
1999,0.000399,0.48122,0.497341
2000,0.0004,0.482738,0.497341
2001,0.000401,0.48122,0.497341
2002,0.000402,0.482738,0.497341
2003,0.000403,0.482738,0.497341
2004,0.000404,0.482738,0.497341
2005,0.000405,0.482738,0.497341
2006,0.000406,0.482738,0.495823
2007,0.000407,0.482738,0.497341
2008,0.000408,0.482738,0.497341
2009,0.000409,0.482738,0.497341
2010,0.00041,0.482738,0.497341
2011,0.000411,0.482738,0.497341
2012,0.000412,0.482738,0.497341
2013,0.000413,0.482738,0.497341
2014,0.000414,0.482738,0.497341
2015,0.000415,0.482738,0.497341
2016,0.000416,0.484256,0.497341
2017,0.000417,0.482738,0.498859
2018,0.000418,0.484256,0.497341
2019,0.000419,0.482738,0.497341
2020,0.00042,0.482738,0.497341
2021,0.000421,0.484256,0.497341
2022,0.000422,0.48122,0.497341
2023,0.000423,0.484256,0.497341
2024,0.000424,0.484256,0.497341
2025,0.000425,0.484256,0.497341
2026,0.000426,0.484256,0.497341
2027,0.000427,0.484256,0.497341
2028,0.000428,0.484256,0.497341
2029,0.000429,0.484256,0.495823
2030,0.00043,0.484256,0.497341
2031,0.000431,0.484256,0.492787
2032,0.000432,0.484256,0.558063
2033,0.000433,0.48122,-0.266235
2034,0.000434,0.470594,-0.492424
2035,0.000435,0.461485,-0.50305
2036,0.000436,0.450859,-0.50305
2037,0.000437,0.441751,-0.501532
2038,0.000438,0.432643,-0.501532
2039,0.000439,0.423534,-0.506086
2040,0.00044,0.414426,-0.50305
2041,0.000441,0.4038,-0.500014
2042,0.000442,0.394692,-0.506086
2043,0.000443,0.385583,-0.50305
2044,0.000444,0.377993,-0.501532
2045,0.000445,0.367367,-0.501532
2046,0.000446,0.359776,-0.501532
2047,0.000447,0.350668,-0.500014
2048,0.000448,0.34156,-0.500014
2049,0.000449,0.332452,-0.50305
2050,0.00045,0.324861,-0.50305
2051,0.000451,0.317271,-0.501532
2052,0.000452,0.306645,-0.501532
2053,0.000453,0.300573,-0.501532
2054,0.000454,0.291465,-0.501532
2055,0.000455,0.282356,-0.50305
2056,0.000456,0.274766,-0.501532
2057,0.000457,0.268694,-0.501532
2058,0.000458,0.259586,-0.501532
2059,0.000459,0.253513,-0.501532
2060,0.00046,0.244405,-0.50305
2061,0.000461,0.235297,-0.500014
2062,0.000462,0.229225,-0.50305
2063,0.000463,0.223153,-0.50305
2064,0.000464,0.215562,-0.50305
2065,0.000465,0.206454,-0.501532
2066,0.000466,0.200382,-0.50305
2067,0.000467,0.192792,-0.50305
2068,0.000468,0.185201,-0.50305
2069,0.000469,0.177611,-0.50305
2070,0.00047,0.171539,-0.50305
2071,0.000471,0.163949,-0.50305
2072,0.000472,0.157877,-0.501532
2073,0.000473,0.148768,-0.50305
2074,0.000474,0.145732,-0.50305
2075,0.000475,0.136624,-0.50305
2076,0.000476,0.130552,-0.50305
2077,0.000477,0.125998,-0.50305
2078,0.000478,0.119925,-0.50305
2079,0.000479,0.112335,-0.50305
2080,0.00048,0.106263,-0.50305
2081,0.000481,0.100191,-0.50305
2082,0.000482,0.0926007,-0.50305
2083,0.000483,0.0880466,-0.50305
2084,0.000484,0.0819744,-0.50305
2085,0.000485,0.0759022,-0.50305
2086,0.000486,0.06983,-0.50305
2087,0.000487,0.0637579,-0.50305
2088,0.000488,0.0576857,-0.50305
2089,0.000489,0.0516135,-0.50305
2090,0.00049,0.0485774,-0.50305
2091,0.000491,0.0425052,-0.50305
2092,0.000492,0.0364331,-0.50305
2093,0.000493,0.0318789,-0.50305
2094,0.000494,0.0258068,-0.50305
2095,0.000495,0.0182165,-0.50305
2096,0.000496,0.0151804,-0.506086
2097,0.000497,0.00910827,-0.50305
2098,0.000498,0.00455413,-0.50305
2099,0.000499,-0.00303609,-0.507604
2100,0.0005,-0.00607218,-0.50305
2101,0.000501,-0.0121444,-0.50305
2102,0.000502,-0.0166985,-0.50305
2103,0.000503,-0.0212526,-0.50305
2104,0.000504,-0.0273248,-0.501532
2105,0.000505,-0.0303609,-0.501532
2106,0.000506,-0.034915,-0.50305
2107,0.000507,-0.0394692,-0.50305
2108,0.000508,-0.0455413,-0.50305
2109,0.000509,-0.0500955,-0.50305
2110,0.00051,-0.0546496,-0.50305
2111,0.000511,-0.0592037,-0.506086
2112,0.000512,-0.0622398,-0.50305
2113,0.000513,-0.068312,-0.506086
2114,0.000514,-0.0713481,-0.506086
2115,0.000515,-0.0759022,-0.501532
2116,0.000516,-0.0819744,-0.506086
2117,0.000517,-0.0850105,-0.506086
2118,0.000518,-0.0880466,-0.50305
2119,0.000519,-0.0941187,-0.50305
2120,0.00052,-0.0986729,-0.50305
2121,0.000521,-0.101709,-0.50305
2122,0.000522,-0.104745,-0.50305
2123,0.000523,-0.110817,-0.50305
2124,0.000524,-0.112335,-0.506086
2125,0.000525,-0.116889,-0.50305
2126,0.000526,-0.121444,-0.50305
2127,0.000527,-0.125998,-0.506086
2128,0.000528,-0.129034,-0.501532
2129,0.000529,-0.13207,-0.506086
2130,0.00053,-0.136624,-0.506086
2131,0.000531,-0.13966,-0.50305
2132,0.000532,-0.142696,-0.506086
2133,0.000533,-0.14725,-0.506086
2134,0.000534,-0.151804,-0.506086
2135,0.000535,-0.154841,-0.506086
2136,0.000536,-0.157877,-0.506086
2137,0.000537,-0.160913,-0.506086
2138,0.000538,-0.163949,-0.506086
2139,0.000539,-0.166985,-0.506086
2140,0.00054,-0.173057,-0.506086
2141,0.000541,-0.176093,-0.50305
2142,0.000542,-0.179129,-0.507604
2143,0.000543,-0.182165,-0.507604
2144,0.000544,-0.186719,-0.506086
2145,0.000545,-0.186719,-0.506086
2146,0.000546,-0.191274,-0.506086
2147,0.000547,-0.195828,-0.506086
2148,0.000548,-0.197346,-0.506086
2149,0.000549,-0.2019,-0.507604
2150,0.00055,-0.204936,-0.507604
2151,0.000551,-0.207972,-0.506086
2152,0.000552,-0.211008,-0.506086
2153,0.000553,-0.214044,-0.507604
2154,0.000554,-0.218598,-0.507604
2155,0.000555,-0.220116,-0.50305
2156,0.000556,-0.223153,-0.507604
2157,0.000557,-0.226189,-0.507604
2158,0.000558,-0.229225,-0.50305
2159,0.000559,-0.232261,-0.507604
2160,0.00056,-0.232261,-0.507604
2161,0.000561,-0.236815,-0.507604
2162,0.000562,-0.236815,-0.507604
2163,0.000563,-0.242887,-0.507604
2164,0.000564,-0.245923,-0.507604
2165,0.000565,-0.248959,-0.507604
2166,0.000566,-0.250477,-0.506086
2167,0.000567,-0.253513,-0.509122
2168,0.000568,-0.253513,-0.507604
2169,0.000569,-0.258068,-0.507604
2170,0.00057,-0.259586,-0.509122
2171,0.000571,-0.262622,-0.507604
2172,0.000572,-0.262622,-0.507604
2173,0.000573,-0.268694,-0.507604
2174,0.000574,-0.268694,-0.507604
2175,0.000575,-0.273248,-0.507604
2176,0.000576,-0.273248,-0.507604
2177,0.000577,-0.277802,-0.507604
2178,0.000578,-0.27932,-0.507604
2179,0.000579,-0.282356,-0.507604
2180,0.00058,-0.282356,-0.507604
2181,0.000581,-0.285392,-0.507604
2182,0.000582,-0.28691,-0.506086
2183,0.000583,-0.291465,-0.509122
2184,0.000584,-0.292983,-0.506086
2185,0.000585,-0.296019,-0.507604
2186,0.000586,-0.297537,-0.507604
2187,0.000587,-0.299055,-0.507604
2188,0.000588,-0.302091,-0.507604
2189,0.000589,-0.303609,-0.507604
2190,0.00059,-0.305127,-0.507604
2191,0.000591,-0.305127,-0.507604
2192,0.000592,-0.308163,-0.507604
2193,0.000593,-0.312717,-0.507604
2194,0.000594,-0.314235,-0.507604
2195,0.000595,-0.314235,-0.507604
2196,0.000596,-0.317271,-0.507604
2197,0.000597,-0.318789,-0.507604
2198,0.000598,-0.320307,-0.507604
2199,0.000599,-0.323343,-0.507604
2200,0.0006,-0.324861,-0.507604
2201,0.000601,-0.324861,-0.507604
2202,0.000602,-0.327898,-0.50305
2203,0.000603,-0.329416,-0.509122
2204,0.000604,-0.330934,-0.506086
2205,0.000605,-0.332452,-0.506086
2206,0.000606,-0.33397,-0.507604
2207,0.000607,-0.337006,-0.507604
2208,0.000608,-0.338524,-0.507604
2209,0.000609,-0.340042,-0.507604
2210,0.00061,-0.343078,-0.507604
2211,0.000611,-0.344596,-0.507604
2212,0.000612,-0.344596,-0.507604
2213,0.000613,-0.347632,-0.507604
2214,0.000614,-0.34915,-0.507604
2215,0.000615,-0.34915,-0.507604
2216,0.000616,-0.352186,-0.507604
2217,0.000617,-0.353704,-0.507604
2218,0.000618,-0.355222,-0.507604
2219,0.000619,-0.35674,-0.507604
2220,0.00062,-0.358258,-0.507604
2221,0.000621,-0.358258,-0.507604
2222,0.000622,-0.361295,-0.507604
2223,0.000623,-0.361295,-0.507604
2224,0.000624,-0.364331,-0.507604
2225,0.000625,-0.365849,-0.50305
2226,0.000626,-0.367367,-0.509122
2227,0.000627,-0.368885,-0.509122
2228,0.000628,-0.370403,-0.509122
2229,0.000629,-0.370403,-0.507604
2230,0.00063,-0.371921,-0.507604
2231,0.000631,-0.371921,-0.507604
2232,0.000632,-0.374957,-0.507604
2233,0.000633,-0.376475,-0.506086
2234,0.000634,-0.377993,-0.509122
2235,0.000635,-0.377993,-0.507604
2236,0.000636,-0.377993,-0.507604
2237,0.000637,-0.381029,-0.507604
2238,0.000638,-0.382547,-0.507604
2239,0.000639,-0.381029,-0.507604
2240,0.00064,-0.385583,-0.507604
2241,0.000641,-0.387101,-0.507604
2242,0.000642,-0.387101,-0.507604
2243,0.000643,-0.388619,-0.507604
2244,0.000644,-0.390137,-0.509122
2245,0.000645,-0.390137,-0.506086
2246,0.000646,-0.393173,-0.506086
2247,0.000647,-0.393173,-0.509122
2248,0.000648,-0.394692,-0.507604
2249,0.000649,-0.394692,-0.507604
2250,0.00065,-0.39621,-0.507604
2251,0.000651,-0.39621,-0.507604
2252,0.000652,-0.399246,-0.507604
2253,0.000653,-0.399246,-0.507604
2254,0.000654,-0.399246,-0.507604
2255,0.000655,-0.402282,-0.507604
2256,0.000656,-0.402282,-0.507604
2257,0.000657,-0.4038,-0.506086
2258,0.000658,-0.4038,-0.509122
2259,0.000659,-0.4038,-0.507604
2260,0.00066,-0.408354,-0.507604
2261,0.000661,-0.408354,-0.507604
2262,0.000662,-0.408354,-0.507604
2263,0.000663,-0.41139,-0.507604
2264,0.000664,-0.409872,-0.506086
2265,0.000665,-0.412908,-0.509122
2266,0.000666,-0.412908,-0.507604
2267,0.000667,-0.414426,-0.507604
2268,0.000668,-0.414426,-0.507604
2269,0.000669,-0.414426,-0.507604
2270,0.00067,-0.417462,-0.507604
2271,0.000671,-0.417462,-0.507604
2272,0.000672,-0.41898,-0.507604
2273,0.000673,-0.417462,-0.507604
2274,0.000674,-0.420498,-0.507604
2275,0.000675,-0.41898,-0.507604
2276,0.000676,-0.422016,-0.507604
2277,0.000677,-0.422016,-0.507604
2278,0.000678,-0.423534,-0.507604
2279,0.000679,-0.423534,-0.507604
2280,0.00068,-0.423534,-0.507604
2281,0.000681,-0.42657,-0.507604
2282,0.000682,-0.42657,-0.507604
2283,0.000683,-0.425052,-0.507604
2284,0.000684,-0.428088,-0.507604
2285,0.000685,-0.428088,-0.507604
2286,0.000686,-0.428088,-0.507604
2287,0.000687,-0.428088,-0.507604
2288,0.000688,-0.432643,-0.507604
2289,0.000689,-0.429607,-0.507604
2290,0.00069,-0.434161,-0.507604
2291,0.000691,-0.434161,-0.507604
2292,0.000692,-0.434161,-0.509122
2293,0.000693,-0.435679,-0.507604
2294,0.000694,-0.435679,-0.507604
2295,0.000695,-0.435679,-0.509122
2296,0.000696,-0.435679,-0.509122
2297,0.000697,-0.438715,-0.507604
2298,0.000698,-0.438715,-0.510641
2299,0.000699,-0.438715,-0.509122
2300,0.0007,-0.440233,-0.509122
2301,0.000701,-0.440233,-0.507604
2302,0.000702,-0.441751,-0.509122
2303,0.000703,-0.440233,-0.509122
2304,0.000704,-0.443269,-0.506086
2305,0.000705,-0.443269,-0.510641
2306,0.000706,-0.441751,-0.509122
2307,0.000707,-0.444787,-0.506086
2308,0.000708,-0.444787,-0.509122
2309,0.000709,-0.444787,-0.509122
2310,0.00071,-0.446305,-0.509122
2311,0.000711,-0.446305,-0.507604
2312,0.000712,-0.447823,-0.507604
2313,0.000713,-0.447823,-0.507604
2314,0.000714,-0.447823,-0.507604
2315,0.000715,-0.449341,-0.507604
2316,0.000716,-0.449341,-0.510641
2317,0.000717,-0.447823,-0.506086
2318,0.000718,-0.450859,-0.510641
2319,0.000719,-0.450859,-0.509122
2320,0.00072,-0.452377,-0.507604
2321,0.000721,-0.449341,-0.507604
2322,0.000722,-0.452377,-0.510641
2323,0.000723,-0.452377,-0.507604
2324,0.000724,-0.452377,-0.507604
2325,0.000725,-0.453895,-0.507604
2326,0.000726,-0.453895,-0.510641
2327,0.000727,-0.452377,-0.507604
2328,0.000728,-0.456931,-0.507604
2329,0.000729,-0.456931,-0.507604
2330,0.00073,-0.456931,-0.507604
2331,0.000731,-0.458449,-0.507604
2332,0.000732,-0.458449,-0.507604
2333,0.000733,-0.458449,-0.507604
2334,0.000734,-0.458449,-0.507604
2335,0.000735,-0.459967,-0.507604
2336,0.000736,-0.459967,-0.507604
2337,0.000737,-0.459967,-0.507604
2338,0.000738,-0.461485,-0.507604
2339,0.000739,-0.461485,-0.509122
2340,0.00074,-0.463004,-0.509122
2341,0.000741,-0.463004,-0.509122
2342,0.000742,-0.463004,-0.509122
2343,0.000743,-0.463004,-0.507604
2344,0.000744,-0.464522,-0.507604
2345,0.000745,-0.464522,-0.507604
2346,0.000746,-0.464522,-0.507604
2347,0.000747,-0.464522,-0.507604
2348,0.000748,-0.46604,-0.507604
2349,0.000749,-0.46604,-0.510641
2350,0.00075,-0.46604,-0.507604
2351,0.000751,-0.46604,-0.507604
2352,0.000752,-0.46604,-0.507604
2353,0.000753,-0.46604,-0.507604
2354,0.000754,-0.467558,-0.507604
2355,0.000755,-0.467558,-0.507604
2356,0.000756,-0.467558,-0.510641
2357,0.000757,-0.467558,-0.507604
2358,0.000758,-0.469076,-0.507604
2359,0.000759,-0.469076,-0.507604
2360,0.00076,-0.472112,-0.507604
2361,0.000761,-0.467558,-0.507604
2362,0.000762,-0.470594,-0.507604
2363,0.000763,-0.470594,-0.507604
2364,0.000764,-0.470594,-0.507604
2365,0.000765,-0.470594,-0.509122
2366,0.000766,-0.470594,-0.507604
2367,0.000767,-0.472112,-0.507604
2368,0.000768,-0.472112,-0.507604
2369,0.000769,-0.472112,-0.507604
2370,0.00077,-0.472112,-0.507604
2371,0.000771,-0.472112,-0.507604
2372,0.000772,-0.47363,-0.509122
2373,0.000773,-0.47363,-0.507604
2374,0.000774,-0.47363,-0.507604
2375,0.000775,-0.47363,-0.507604
2376,0.000776,-0.475148,-0.509122
2377,0.000777,-0.475148,-0.507604
2378,0.000778,-0.475148,-0.507604
2379,0.000779,-0.475148,-0.509122
2380,0.00078,-0.475148,-0.507604
2381,0.000781,-0.475148,-0.507604
2382,0.000782,-0.475148,-0.507604
2383,0.000783,-0.476666,-0.509122
2384,0.000784,-0.476666,-0.507604
2385,0.000785,-0.476666,-0.507604
2386,0.000786,-0.476666,-0.509122
2387,0.000787,-0.476666,-0.509122
2388,0.000788,-0.476666,-0.509122
2389,0.000789,-0.478184,-0.507604
2390,0.00079,-0.478184,-0.507604
2391,0.000791,-0.478184,-0.507604
2392,0.000792,-0.478184,-0.507604
2393,0.000793,-0.478184,-0.509122
2394,0.000794,-0.48122,-0.507604
2395,0.000795,-0.48122,-0.507604
2396,0.000796,-0.48122,-0.507604
2397,0.000797,-0.48122,-0.509122
2398,0.000798,-0.48122,-0.509122
2399,0.000799,-0.48122,-0.509122
2400,0.0008,-0.48122,-0.507604
2401,0.000801,-0.48122,-0.507604
2402,0.000802,-0.482738,-0.507604
2403,0.000803,-0.482738,-0.510641
2404,0.000804,-0.482738,-0.506086
2405,0.000805,-0.482738,-0.510641
2406,0.000806,-0.482738,-0.509122
2407,0.000807,-0.482738,-0.506086
2408,0.000808,-0.482738,-0.509122
2409,0.000809,-0.484256,-0.510641
2410,0.00081,-0.484256,-0.509122
2411,0.000811,-0.484256,-0.506086
2412,0.000812,-0.484256,-0.509122
2413,0.000813,-0.484256,-0.509122
2414,0.000814,-0.484256,-0.506086
2415,0.000815,-0.485774,-0.509122
2416,0.000816,-0.485774,-0.509122
2417,0.000817,-0.485774,-0.507604
2418,0.000818,-0.485774,-0.507604
2419,0.000819,-0.485774,-0.509122
2420,0.00082,-0.485774,-0.509122
2421,0.000821,-0.485774,-0.507604
2422,0.000822,-0.487292,-0.506086
2423,0.000823,-0.487292,-0.509122
2424,0.000824,-0.485774,-0.509122
2425,0.000825,-0.487292,-0.509122
2426,0.000826,-0.487292,-0.510641
2427,0.000827,-0.487292,-0.509122
2428,0.000828,-0.487292,-0.507604
2429,0.000829,-0.48881,-0.509122
2430,0.00083,-0.48881,-0.507604
2431,0.000831,-0.48881,-0.507604
2432,0.000832,-0.48881,-0.507604
2433,0.000833,-0.48881,-0.509122
2434,0.000834,-0.48881,-0.507604
2435,0.000835,-0.48881,-0.507604
2436,0.000836,-0.48881,-0.509122
2437,0.000837,-0.48881,-0.507604
2438,0.000838,-0.48881,-0.507604
2439,0.000839,-0.48881,-0.507604
2440,0.00084,-0.48881,-0.507604
2441,0.000841,-0.490328,-0.507604
2442,0.000842,-0.490328,-0.507604
2443,0.000843,-0.490328,-0.507604
2444,0.000844,-0.490328,-0.507604
2445,0.000845,-0.490328,-0.507604
2446,0.000846,-0.490328,-0.510641
2447,0.000847,-0.491846,-0.507604
2448,0.000848,-0.48881,-0.507604
2449,0.000849,-0.490328,-0.507604
2450,0.00085,-0.490328,-0.509122
2451,0.000851,-0.490328,-0.507604
2452,0.000852,-0.490328,-0.507604
2453,0.000853,-0.491846,-0.507604
2454,0.000854,-0.491846,-0.507604
2455,0.000855,-0.491846,-0.507604
2456,0.000856,-0.491846,-0.507604
2457,0.000857,-0.491846,-0.507604
2458,0.000858,-0.491846,-0.507604
2459,0.000859,-0.491846,-0.507604
2460,0.00086,-0.491846,-0.507604
2461,0.000861,-0.491846,-0.507604
2462,0.000862,-0.491846,-0.507604
2463,0.000863,-0.491846,-0.509122
2464,0.000864,-0.491846,-0.509122
2465,0.000865,-0.493364,-0.509122
2466,0.000866,-0.493364,-0.509122
2467,0.000867,-0.493364,-0.509122
2468,0.000868,-0.493364,-0.507604
2469,0.000869,-0.493364,-0.507604
2470,0.00087,-0.493364,-0.509122
2471,0.000871,-0.493364,-0.509122
2472,0.000872,-0.493364,-0.509122
2473,0.000873,-0.493364,-0.507604
2474,0.000874,-0.493364,-0.507604
2475,0.000875,-0.493364,-0.507604
2476,0.000876,-0.493364,-0.507604
2477,0.000877,-0.493364,-0.510641
2478,0.000878,-0.493364,-0.507604
2479,0.000879,-0.493364,-0.507604
2480,0.00088,-0.493364,-0.507604
2481,0.000881,-0.494882,-0.507604
2482,0.000882,-0.494882,-0.509122
2483,0.000883,-0.494882,-0.509122
2484,0.000884,-0.494882,-0.507604
2485,0.000885,-0.494882,-0.507604
2486,0.000886,-0.494882,-0.509122
2487,0.000887,-0.494882,-0.509122
2488,0.000888,-0.494882,-0.507604
2489,0.000889,-0.494882,-0.507604
2490,0.00089,-0.497919,-0.510641
2491,0.000891,-0.494882,-0.506086
2492,0.000892,-0.494882,-0.509122
2493,0.000893,-0.494882,-0.510641
2494,0.000894,-0.494882,-0.507604
2495,0.000895,-0.494882,-0.509122
2496,0.000896,-0.494882,-0.507604
2497,0.000897,-0.494882,-0.509122
2498,0.000898,-0.4964,-0.509122
2499,0.000899,-0.4964,-0.507604
2500,0.0009,-0.4964,-0.510641
2501,0.000901,-0.4964,-0.507604
2502,0.000902,-0.4964,-0.507604
2503,0.000903,-0.4964,-0.509122
2504,0.000904,-0.4964,-0.509122
2505,0.000905,-0.4964,-0.507604
2506,0.000906,-0.4964,-0.507604
2507,0.000907,-0.4964,-0.507604
2508,0.000908,-0.4964,-0.507604
2509,0.000909,-0.4964,-0.507604
2510,0.00091,-0.499437,-0.509122
2511,0.000911,-0.4964,-0.507604
2512,0.000912,-0.497919,-0.507604
2513,0.000913,-0.494882,-0.507604
2514,0.000914,-0.497919,-0.507604
2515,0.000915,-0.497919,-0.507604
2516,0.000916,-0.497919,-0.509122
2517,0.000917,-0.497919,-0.509122
2518,0.000918,-0.497919,-0.509122
2519,0.000919,-0.497919,-0.507604
2520,0.00092,-0.497919,-0.507604
2521,0.000921,-0.497919,-0.507604
2522,0.000922,-0.497919,-0.507604
2523,0.000923,-0.497919,-0.510641
2524,0.000924,-0.497919,-0.509122
2525,0.000925,-0.497919,-0.507604
2526,0.000926,-0.497919,-0.507604
2527,0.000927,-0.497919,-0.507604
2528,0.000928,-0.497919,-0.507604
2529,0.000929,-0.497919,-0.507604
2530,0.00093,-0.499437,-0.507604
2531,0.000931,-0.497919,-0.500014
2532,0.000932,-0.497919,-0.569844
2533,0.000933,-0.494882,0.252936
2534,0.000934,-0.48881,0.476088
2535,0.000935,-0.476666,0.489751
2536,0.000936,-0.469076,0.489751
2537,0.000937,-0.458449,0.491269
2538,0.000938,-0.449341,0.491269
2539,0.000939,-0.438715,0.489751
2540,0.00094,-0.428088,0.489751
2541,0.000941,-0.422016,0.486715
2542,0.000942,-0.41139,0.491269
2543,0.000943,-0.402282,0.489751
2544,0.000944,-0.393173,0.489751
2545,0.000945,-0.382547,0.489751
2546,0.000946,-0.374957,0.489751
2547,0.000947,-0.365849,0.491269
2548,0.000948,-0.35674,0.491269
2549,0.000949,-0.350668,0.489751
2550,0.00095,-0.34156,0.489751
2551,0.000951,-0.330934,0.486715
2552,0.000952,-0.323343,0.491269
2553,0.000953,-0.315753,0.491269
2554,0.000954,-0.308163,0.491269
2555,0.000955,-0.299055,0.491269
2556,0.000956,-0.291465,0.491269
2557,0.000957,-0.282356,0.491269
2558,0.000958,-0.274766,0.491269
2559,0.000959,-0.267176,0.491269
2560,0.00096,-0.259586,0.492787
2561,0.000961,-0.253513,0.489751
2562,0.000962,-0.244405,0.491269
2563,0.000963,-0.235297,0.491269
2564,0.000964,-0.230743,0.491269
2565,0.000965,-0.224671,0.491269
2566,0.000966,-0.214044,0.491269
2567,0.000967,-0.207972,0.491269
2568,0.000968,-0.200382,0.491269
2569,0.000969,-0.19431,0.491269
2570,0.00097,-0.186719,0.491269
2571,0.000971,-0.180647,0.491269
2572,0.000972,-0.174575,0.491269
2573,0.000973,-0.165467,0.491269
2574,0.000974,-0.159395,0.489751
2575,0.000975,-0.153322,0.491269
2576,0.000976,-0.14725,0.494305
2577,0.000977,-0.13966,0.489751
2578,0.000978,-0.136624,0.492787
2579,0.000979,-0.127516,0.492787
2580,0.00098,-0.121444,0.489751
2581,0.000981,-0.115371,0.491269
2582,0.000982,-0.109299,0.492787
2583,0.000983,-0.103227,0.492787
2584,0.000984,-0.0956368,0.492787
2585,0.000985,-0.0910827,0.492787
2586,0.000986,-0.0834924,0.492787
2587,0.000987,-0.0789383,0.492787
2588,0.000988,-0.0743842,0.492787
2589,0.000989,-0.0667939,0.494305
2590,0.00099,-0.0622398,0.494305
2591,0.000991,-0.0546496,0.494305
2592,0.000992,-0.0516135,0.494305
2593,0.000993,-0.0455413,0.494305
2594,0.000994,-0.0409872,0.494305
2595,0.000995,-0.034915,0.494305
2596,0.000996,-0.0288428,0.494305
2597,0.000997,-0.0258068,0.494305
2598,0.000998,-0.0197346,0.494305
2599,0.000999,-0.0136624,0.494305
2600,0.001,-0.00910827,0.494305
2601,0.001001,-0.00455413,0.494305
2602,0.001002,0.00303609,0.494305
2603,0.001003,0.00607218,0.494305
2604,0.001004,0.0106263,0.494305
2605,0.001005,0.0166985,0.494305
2606,0.001006,0.0197346,0.495823
2607,0.001007,0.0258068,0.494305
2608,0.001008,0.0303609,0.494305
2609,0.001009,0.034915,0.495823
2610,0.00101,0.0394692,0.495823
2611,0.001011,0.0455413,0.494305
2612,0.001012,0.0500955,0.494305
2613,0.001013,0.0531316,0.495823
2614,0.001014,0.0561676,0.494305
2615,0.001015,0.0607218,0.494305
2616,0.001016,0.0667939,0.495823
2617,0.001017,0.068312,0.495823
2618,0.001018,0.0743842,0.492787
2619,0.001019,0.0804563,0.497341
2620,0.00102,0.0819744,0.494305
2621,0.001021,0.0880466,0.494305
2622,0.001022,0.0895646,0.494305
2623,0.001023,0.0971548,0.497341
2624,0.001024,0.0986729,0.494305
2625,0.001025,0.103227,0.495823
2626,0.001026,0.106263,0.495823
2627,0.001027,0.110817,0.495823
2628,0.001028,0.113853,0.492787
2629,0.001029,0.116889,0.495823
2630,0.00103,0.121444,0.497341
2631,0.001031,0.127516,0.495823
2632,0.001032,0.129034,0.495823
2633,0.001033,0.133588,0.495823
2634,0.001034,0.136624,0.495823
2635,0.001035,0.13966,0.495823
2636,0.001036,0.144214,0.495823
2637,0.001037,0.14725,0.497341
2638,0.001038,0.150286,0.495823
2639,0.001039,0.154841,0.495823
2640,0.00104,0.157877,0.497341
2641,0.001041,0.159395,0.494305
2642,0.001042,0.163949,0.497341
2643,0.001043,0.168503,0.497341
2644,0.001044,0.171539,0.497341
2645,0.001045,0.174575,0.497341
2646,0.001046,0.179129,0.495823
2647,0.001047,0.182165,0.497341
2648,0.001048,0.183683,0.497341
2649,0.001049,0.186719,0.497341
2650,0.00105,0.189756,0.497341
2651,0.001051,0.19431,0.497341
2652,0.001052,0.197346,0.497341
2653,0.001053,0.200382,0.497341
2654,0.001054,0.203418,0.497341
2655,0.001055,0.204936,0.497341
2656,0.001056,0.207972,0.497341
2657,0.001057,0.211008,0.497341
2658,0.001058,0.215562,0.497341
2659,0.001059,0.218598,0.498859
2660,0.00106,0.221634,0.498859
2661,0.001061,0.221634,0.497341
2662,0.001062,0.226189,0.495823
2663,0.001063,0.226189,0.495823
2664,0.001064,0.230743,0.495823
2665,0.001065,0.233779,0.497341
2666,0.001066,0.235297,0.497341
2667,0.001067,0.236815,0.497341
2668,0.001068,0.241369,0.495823
2669,0.001069,0.242887,0.494305
2670,0.00107,0.245923,0.497341
2671,0.001071,0.248959,0.497341
2672,0.001072,0.248959,0.497341
2673,0.001073,0.253513,0.497341
2674,0.001074,0.255031,0.497341
2675,0.001075,0.256549,0.495823
2676,0.001076,0.259586,0.495823
2677,0.001077,0.259586,0.495823
2678,0.001078,0.265658,0.495823
2679,0.001079,0.268694,0.495823
2680,0.00108,0.270212,0.497341
2681,0.001081,0.27173,0.497341
2682,0.001082,0.273248,0.495823
2683,0.001083,0.274766,0.495823
2684,0.001084,0.277802,0.495823
2685,0.001085,0.27932,0.497341
2686,0.001086,0.282356,0.494305
2687,0.001087,0.282356,0.497341
2688,0.001088,0.285392,0.497341
2689,0.001089,0.288428,0.497341
2690,0.00109,0.289946,0.497341
2691,0.001091,0.292983,0.497341
2692,0.001092,0.294501,0.495823
2693,0.001093,0.297537,0.495823
2694,0.001094,0.300573,0.497341
2695,0.001095,0.300573,0.497341
2696,0.001096,0.302091,0.497341
2697,0.001097,0.302091,0.497341
2698,0.001098,0.305127,0.497341
2699,0.001099,0.308163,0.495823
2700,0.0011,0.311199,0.495823
2701,0.001101,0.312717,0.495823
2702,0.001102,0.314235,0.495823
2703,0.001103,0.315753,0.497341
2704,0.001104,0.315753,0.497341
2705,0.001105,0.320307,0.497341
2706,0.001106,0.320307,0.495823
2707,0.001107,0.321825,0.495823
2708,0.001108,0.323343,0.495823
2709,0.001109,0.32638,0.495823
2710,0.00111,0.327898,0.495823
2711,0.001111,0.327898,0.495823
2712,0.001112,0.330934,0.498859
2713,0.001113,0.330934,0.495823
2714,0.001114,0.332452,0.495823
2715,0.001115,0.335488,0.495823
2716,0.001116,0.337006,0.497341
2717,0.001117,0.338524,0.495823
2718,0.001118,0.340042,0.495823
2719,0.001119,0.340042,0.497341
2720,0.00112,0.343078,0.494305
2721,0.001121,0.346114,0.497341
2722,0.001122,0.346114,0.497341
2723,0.001123,0.346114,0.494305
2724,0.001124,0.34915,0.498859
2725,0.001125,0.350668,0.495823
2726,0.001126,0.352186,0.495823
2727,0.001127,0.353704,0.497341
2728,0.001128,0.353704,0.494305
2729,0.001129,0.353704,0.497341
2730,0.00113,0.35674,0.495823
2731,0.001131,0.359776,0.495823
2732,0.001132,0.359776,0.495823
2733,0.001133,0.361295,0.495823
2734,0.001134,0.362813,0.495823
2735,0.001135,0.364331,0.498859
2736,0.001136,0.364331,0.494305
2737,0.001137,0.365849,0.497341
2738,0.001138,0.367367,0.497341
2739,0.001139,0.368885,0.495823
2740,0.00114,0.370403,0.495823
2741,0.001141,0.370403,0.495823
2742,0.001142,0.371921,0.498859
2743,0.001143,0.371921,0.494305
2744,0.001144,0.374957,0.497341
2745,0.001145,0.374957,0.497341
2746,0.001146,0.376475,0.497341
2747,0.001147,0.376475,0.497341
2748,0.001148,0.379511,0.495823
2749,0.001149,0.381029,0.497341
2750,0.00115,0.381029,0.497341
2751,0.001151,0.381029,0.497341
2752,0.001152,0.385583,0.497341
2753,0.001153,0.384065,0.497341
2754,0.001154,0.387101,0.498859
2755,0.001155,0.388619,0.497341
2756,0.001156,0.388619,0.497341
2757,0.001157,0.390137,0.495823
2758,0.001158,0.390137,0.497341
2759,0.001159,0.390137,0.497341
2760,0.00116,0.393173,0.495823
2761,0.001161,0.393173,0.497341
2762,0.001162,0.394692,0.497341
2763,0.001163,0.394692,0.495823
2764,0.001164,0.394692,0.497341
2765,0.001165,0.397728,0.497341
2766,0.001166,0.397728,0.497341
2767,0.001167,0.399246,0.497341
2768,0.001168,0.399246,0.497341
2769,0.001169,0.399246,0.497341
2770,0.00117,0.402282,0.497341
2771,0.001171,0.400764,0.497341
2772,0.001172,0.4038,0.497341
2773,0.001173,0.4038,0.497341
2774,0.001174,0.406836,0.497341
2775,0.001175,0.4038,0.497341
2776,0.001176,0.408354,0.497341
2777,0.001177,0.408354,0.497341
2778,0.001178,0.408354,0.498859
2779,0.001179,0.409872,0.497341
2780,0.00118,0.41139,0.497341
2781,0.001181,0.409872,0.497341
2782,0.001182,0.412908,0.497341
2783,0.001183,0.412908,0.497341
2784,0.001184,0.414426,0.497341
2785,0.001185,0.414426,0.498859
2786,0.001186,0.415944,0.497341
2787,0.001187,0.414426,0.497341
2788,0.001188,0.417462,0.497341
2789,0.001189,0.415944,0.498859
2790,0.00119,0.41898,0.497341
2791,0.001191,0.41898,0.497341
2792,0.001192,0.420498,0.497341
2793,0.001193,0.420498,0.497341
2794,0.001194,0.420498,0.497341
2795,0.001195,0.422016,0.497341
2796,0.001196,0.420498,0.497341
2797,0.001197,0.423534,0.497341
2798,0.001198,0.423534,0.497341
2799,0.001199,0.423534,0.497341
2800,0.0012,0.425052,0.497341
2801,0.001201,0.423534,0.497341
2802,0.001202,0.42657,0.497341
2803,0.001203,0.425052,0.497341
2804,0.001204,0.428088,0.497341
2805,0.001205,0.428088,0.497341
2806,0.001206,0.42657,0.497341
2807,0.001207,0.431125,0.498859
2808,0.001208,0.431125,0.497341
2809,0.001209,0.431125,0.497341
2810,0.00121,0.432643,0.497341
2811,0.001211,0.432643,0.497341
2812,0.001212,0.432643,0.497341
2813,0.001213,0.432643,0.497341
2814,0.001214,0.434161,0.497341
2815,0.001215,0.434161,0.497341
2816,0.001216,0.432643,0.497341
2817,0.001217,0.435679,0.497341
2818,0.001218,0.435679,0.497341
2819,0.001219,0.434161,0.497341
2820,0.00122,0.437197,0.497341
2821,0.001221,0.437197,0.495823
2822,0.001222,0.435679,0.497341
2823,0.001223,0.438715,0.497341
2824,0.001224,0.438715,0.495823
2825,0.001225,0.438715,0.495823
2826,0.001226,0.440233,0.497341
2827,0.001227,0.440233,0.497341
2828,0.001228,0.438715,0.495823
2829,0.001229,0.441751,0.498859
2830,0.00123,0.441751,0.495823
2831,0.001231,0.440233,0.495823
2832,0.001232,0.443269,0.497341
2833,0.001233,0.443269,0.497341
2834,0.001234,0.443269,0.497341
2835,0.001235,0.443269,0.495823
2836,0.001236,0.444787,0.495823
2837,0.001237,0.444787,0.497341
2838,0.001238,0.443269,0.494305
2839,0.001239,0.446305,0.498859
2840,0.00124,0.446305,0.495823
2841,0.001241,0.446305,0.495823
2842,0.001242,0.446305,0.498859
2843,0.001243,0.444787,0.495823
2844,0.001244,0.447823,0.495823
2845,0.001245,0.447823,0.495823
2846,0.001246,0.447823,0.495823
2847,0.001247,0.449341,0.495823
2848,0.001248,0.449341,0.495823
2849,0.001249,0.449341,0.495823
2850,0.00125,0.449341,0.495823
2851,0.001251,0.449341,0.495823
2852,0.001252,0.450859,0.495823
2853,0.001253,0.450859,0.495823
2854,0.001254,0.449341,0.495823
2855,0.001255,0.452377,0.495823
2856,0.001256,0.452377,0.495823
2857,0.001257,0.452377,0.495823
2858,0.001258,0.450859,0.495823
2859,0.001259,0.452377,0.495823
2860,0.00126,0.455413,0.497341
2861,0.001261,0.455413,0.497341
2862,0.001262,0.455413,0.495823
2863,0.001263,0.455413,0.495823
2864,0.001264,0.455413,0.498859
2865,0.001265,0.456931,0.495823
2866,0.001266,0.456931,0.495823
2867,0.001267,0.456931,0.495823
2868,0.001268,0.456931,0.495823
2869,0.001269,0.458449,0.495823
2870,0.00127,0.458449,0.497341
2871,0.001271,0.458449,0.495823
2872,0.001272,0.458449,0.495823
2873,0.001273,0.456931,0.497341
2874,0.001274,0.458449,0.495823
2875,0.001275,0.459967,0.497341
2876,0.001276,0.459967,0.497341
2877,0.001277,0.459967,0.495823
2878,0.001278,0.459967,0.495823
2879,0.001279,0.459967,0.497341
2880,0.00128,0.461485,0.497341
2881,0.001281,0.461485,0.495823
2882,0.001282,0.461485,0.495823
2883,0.001283,0.461485,0.495823
2884,0.001284,0.463004,0.497341
2885,0.001285,0.463004,0.497341
2886,0.001286,0.463004,0.494305
2887,0.001287,0.463004,0.497341
2888,0.001288,0.463004,0.497341
2889,0.001289,0.464522,0.494305
2890,0.00129,0.464522,0.497341
2891,0.001291,0.464522,0.497341
2892,0.001292,0.464522,0.497341
2893,0.001293,0.464522,0.497341
2894,0.001294,0.46604,0.497341
2895,0.001295,0.46604,0.498859
2896,0.001296,0.46604,0.497341
2897,0.001297,0.46604,0.497341
2898,0.001298,0.46604,0.497341
2899,0.001299,0.46604,0.497341
2900,0.0013,0.46604,0.497341
2901,0.001301,0.46604,0.497341
2902,0.001302,0.467558,0.497341
2903,0.001303,0.467558,0.497341
2904,0.001304,0.467558,0.497341
2905,0.001305,0.467558,0.497341
2906,0.001306,0.467558,0.497341
2907,0.001307,0.467558,0.497341
2908,0.001308,0.467558,0.497341
2909,0.001309,0.467558,0.497341
2910,0.00131,0.469076,0.497341
2911,0.001311,0.469076,0.497341
2912,0.001312,0.469076,0.497341
2913,0.001313,0.469076,0.498859
2914,0.001314,0.469076,0.498859
2915,0.001315,0.470594,0.497341
2916,0.001316,0.467558,0.497341
2917,0.001317,0.470594,0.498859
2918,0.001318,0.470594,0.497341
2919,0.001319,0.470594,0.497341
2920,0.00132,0.470594,0.497341
2921,0.001321,0.472112,0.500377
2922,0.001322,0.469076,0.495823
2923,0.001323,0.47363,0.498859
2924,0.001324,0.470594,0.498859
2925,0.001325,0.472112,0.495823
2926,0.001326,0.472112,0.498859
2927,0.001327,0.472112,0.498859
2928,0.001328,0.472112,0.498859
2929,0.001329,0.472112,0.498859
2930,0.00133,0.472112,0.497341
2931,0.001331,0.472112,0.500377
2932,0.001332,0.47363,0.495823
2933,0.001333,0.47363,0.497341
2934,0.001334,0.47363,0.500377
2935,0.001335,0.47363,0.497341
2936,0.001336,0.47363,0.498859
2937,0.001337,0.47363,0.498859
2938,0.001338,0.47363,0.498859
2939,0.001339,0.47363,0.497341
2940,0.00134,0.47363,0.497341
2941,0.001341,0.47363,0.498859
2942,0.001342,0.47363,0.498859
2943,0.001343,0.475148,0.498859
2944,0.001344,0.475148,0.498859
2945,0.001345,0.475148,0.497341
2946,0.001346,0.475148,0.497341
2947,0.001347,0.475148,0.500377
2948,0.001348,0.475148,0.497341
2949,0.001349,0.475148,0.498859
2950,0.00135,0.475148,0.497341
2951,0.001351,0.475148,0.497341
2952,0.001352,0.475148,0.497341
2953,0.001353,0.475148,0.498859
2954,0.001354,0.476666,0.498859
2955,0.001355,0.476666,0.498859
2956,0.001356,0.476666,0.495823
2957,0.001357,0.476666,0.498859
2958,0.001358,0.476666,0.497341
2959,0.001359,0.476666,0.498859
2960,0.00136,0.476666,0.497341
2961,0.001361,0.476666,0.497341
2962,0.001362,0.476666,0.498859
2963,0.001363,0.476666,0.497341
2964,0.001364,0.476666,0.497341
2965,0.001365,0.476666,0.497341
2966,0.001366,0.476666,0.497341
2967,0.001367,0.479702,0.498859
2968,0.001368,0.479702,0.497341
2969,0.001369,0.479702,0.497341
2970,0.00137,0.479702,0.497341
2971,0.001371,0.479702,0.497341
2972,0.001372,0.479702,0.497341
2973,0.001373,0.479702,0.497341
2974,0.001374,0.479702,0.497341
2975,0.001375,0.479702,0.500377
2976,0.001376,0.479702,0.497341
2977,0.001377,0.479702,0.497341
2978,0.001378,0.479702,0.497341
2979,0.001379,0.479702,0.497341
2980,0.00138,0.479702,0.497341
2981,0.001381,0.48122,0.497341
2982,0.001382,0.48122,0.497341
2983,0.001383,0.479702,0.497341
2984,0.001384,0.479702,0.497341
2985,0.001385,0.48122,0.497341
2986,0.001386,0.48122,0.497341
2987,0.001387,0.48122,0.495823
2988,0.001388,0.48122,0.497341
2989,0.001389,0.48122,0.497341
2990,0.00139,0.48122,0.497341
2991,0.001391,0.48122,0.497341
2992,0.001392,0.48122,0.497341
2993,0.001393,0.48122,0.497341
2994,0.001394,0.48122,0.497341
2995,0.001395,0.48122,0.497341
2996,0.001396,0.48122,0.495823
2997,0.001397,0.48122,0.495823
2998,0.001398,0.482738,0.497341
2999,0.001399,0.482738,0.497341
3000,0.0014,0.482738,0.497341
3001,0.001401,0.48122,0.497341
3002,0.001402,0.48122,0.495823
3003,0.001403,0.482738,0.497341
3004,0.001404,0.482738,0.497341
3005,0.001405,0.48122,0.497341
3006,0.001406,0.482738,0.497341
3007,0.001407,0.482738,0.497341
3008,0.001408,0.482738,0.497341
3009,0.001409,0.482738,0.497341
3010,0.00141,0.482738,0.497341
3011,0.001411,0.482738,0.497341
3012,0.001412,0.482738,0.495823
3013,0.001413,0.482738,0.497341
3014,0.001414,0.482738,0.497341
3015,0.001415,0.482738,0.497341
3016,0.001416,0.482738,0.497341
3017,0.001417,0.482738,0.495823
3018,0.001418,0.484256,0.497341
3019,0.001419,0.482738,0.497341
3020,0.00142,0.482738,0.497341
3021,0.001421,0.484256,0.497341
3022,0.001422,0.482738,0.497341
3023,0.001423,0.484256,0.497341
3024,0.001424,0.484256,0.497341
3025,0.001425,0.484256,0.497341
3026,0.001426,0.484256,0.497341
3027,0.001427,0.484256,0.495823
3028,0.001428,0.484256,0.495823
3029,0.001429,0.484256,0.498859
3030,0.00143,0.484256,0.494305
3031,0.001431,0.484256,0.492787
3032,0.001432,0.484256,0.558063
3033,0.001433,0.48122,-0.266235
3034,0.001434,0.470594,-0.489388
3035,0.001435,0.461485,-0.506086
3036,0.001436,0.450859,-0.50305
3037,0.001437,0.441751,-0.501532
3038,0.001438,0.432643,-0.50305
3039,0.001439,0.422016,-0.501532
3040,0.00144,0.412908,-0.50305
3041,0.001441,0.4038,-0.50305
3042,0.001442,0.394692,-0.500014
3043,0.001443,0.385583,-0.506086
3044,0.001444,0.376475,-0.501532
3045,0.001445,0.367367,-0.501532
3046,0.001446,0.361295,-0.501532
3047,0.001447,0.350668,-0.501532
3048,0.001448,0.34156,-0.501532
3049,0.001449,0.332452,-0.501532
3050,0.00145,0.324861,-0.501532
3051,0.001451,0.317271,-0.501532
3052,0.001452,0.308163,-0.50305
3053,0.001453,0.299055,-0.50305
3054,0.001454,0.291465,-0.50305
3055,0.001455,0.282356,-0.501532
3056,0.001456,0.274766,-0.501532
3057,0.001457,0.267176,-0.501532
3058,0.001458,0.259586,-0.50305
3059,0.001459,0.253513,-0.50305
3060,0.00146,0.244405,-0.501532
3061,0.001461,0.236815,-0.501532
3062,0.001462,0.230743,-0.501532
3063,0.001463,0.221634,-0.50305
3064,0.001464,0.215562,-0.500014
3065,0.001465,0.207972,-0.50305
3066,0.001466,0.2019,-0.50305
3067,0.001467,0.192792,-0.50305
3068,0.001468,0.185201,-0.50305
3069,0.001469,0.177611,-0.50305
3070,0.00147,0.171539,-0.50305
3071,0.001471,0.163949,-0.50305
3072,0.001472,0.157877,-0.501532
3073,0.001473,0.151804,-0.50305
3074,0.001474,0.145732,-0.50305
3075,0.001475,0.138142,-0.50305
3076,0.001476,0.13207,-0.506086
3077,0.001477,0.125998,-0.50305
3078,0.001478,0.119925,-0.50305
3079,0.001479,0.112335,-0.50305
3080,0.00148,0.106263,-0.506086
3081,0.001481,0.100191,-0.50305
3082,0.001482,0.0926007,-0.50305
3083,0.001483,0.0880466,-0.50305
3084,0.001484,0.0819744,-0.50305
3085,0.001485,0.0759022,-0.50305
3086,0.001486,0.06983,-0.506086
3087,0.001487,0.0622398,-0.50305
3088,0.001488,0.0592037,-0.501532
3089,0.001489,0.0516135,-0.50305
3090,0.00149,0.0485774,-0.50305
3091,0.001491,0.0409872,-0.50305
3092,0.001492,0.034915,-0.50305
3093,0.001493,0.0318789,-0.50305
3094,0.001494,0.0242887,-0.506086
3095,0.001495,0.0197346,-0.501532
3096,0.001496,0.0151804,-0.506086
3097,0.001497,0.00910827,-0.506086
3098,0.001498,0.00303609,-0.501532
3099,0.001499,0,-0.506086
3100,0.0015,-0.00607218,-0.506086
3101,0.001501,-0.0106263,-0.50305
3102,0.001502,-0.0151804,-0.50305
3103,0.001503,-0.0212526,-0.50305
3104,0.001504,-0.0273248,-0.50305
3105,0.001505,-0.0318789,-0.50305
3106,0.001506,-0.034915,-0.50305
3107,0.001507,-0.0394692,-0.50305
3108,0.001508,-0.0455413,-0.501532
3109,0.001509,-0.0500955,-0.50305
3110,0.00151,-0.0546496,-0.50305
3111,0.001511,-0.0576857,-0.50305
3112,0.001512,-0.0622398,-0.506086
3113,0.001513,-0.068312,-0.506086
3114,0.001514,-0.0713481,-0.506086
3115,0.001515,-0.0759022,-0.506086
3116,0.001516,-0.0804563,-0.50305
3117,0.001517,-0.0865285,-0.506086
3118,0.001518,-0.0880466,-0.50305
3119,0.001519,-0.0941187,-0.50305
3120,0.00152,-0.0986729,-0.506086
3121,0.001521,-0.101709,-0.506086
3122,0.001522,-0.104745,-0.50305
3123,0.001523,-0.109299,-0.50305
3124,0.001524,-0.112335,-0.50305
3125,0.001525,-0.116889,-0.506086
3126,0.001526,-0.121444,-0.506086
3127,0.001527,-0.125998,-0.506086
3128,0.001528,-0.129034,-0.506086
3129,0.001529,-0.13207,-0.506086
3130,0.00153,-0.138142,-0.506086
3131,0.001531,-0.13966,-0.506086
3132,0.001532,-0.142696,-0.506086
3133,0.001533,-0.14725,-0.501532
3134,0.001534,-0.151804,-0.506086
3135,0.001535,-0.154841,-0.506086
3136,0.001536,-0.157877,-0.506086
3137,0.001537,-0.160913,-0.50305
3138,0.001538,-0.163949,-0.507604
3139,0.001539,-0.170021,-0.506086
3140,0.00154,-0.173057,-0.506086
3141,0.001541,-0.176093,-0.506086
3142,0.001542,-0.179129,-0.506086
3143,0.001543,-0.182165,-0.506086
3144,0.001544,-0.185201,-0.506086
3145,0.001545,-0.188237,-0.506086
3146,0.001546,-0.191274,-0.506086
3147,0.001547,-0.195828,-0.507604
3148,0.001548,-0.198864,-0.507604
3149,0.001549,-0.2019,-0.506086
3150,0.00155,-0.204936,-0.506086
3151,0.001551,-0.207972,-0.506086
3152,0.001552,-0.211008,-0.509122
3153,0.001553,-0.214044,-0.507604
3154,0.001554,-0.218598,-0.506086
3155,0.001555,-0.221634,-0.507604
3156,0.001556,-0.221634,-0.506086
3157,0.001557,-0.226189,-0.506086
3158,0.001558,-0.229225,-0.509122
3159,0.001559,-0.230743,-0.507604
3160,0.00156,-0.233779,-0.507604
3161,0.001561,-0.236815,-0.507604
3162,0.001562,-0.238333,-0.507604
3163,0.001563,-0.242887,-0.507604
3164,0.001564,-0.245923,-0.507604
3165,0.001565,-0.247441,-0.507604
3166,0.001566,-0.250477,-0.507604
3167,0.001567,-0.253513,-0.507604
3168,0.001568,-0.255031,-0.507604
3169,0.001569,-0.258068,-0.507604
3170,0.00157,-0.259586,-0.507604
3171,0.001571,-0.262622,-0.507604
3172,0.001572,-0.265658,-0.507604
3173,0.001573,-0.268694,-0.507604
3174,0.001574,-0.270212,-0.507604
3175,0.001575,-0.273248,-0.507604
3176,0.001576,-0.274766,-0.507604
3177,0.001577,-0.277802,-0.507604
3178,0.001578,-0.277802,-0.507604
3179,0.001579,-0.282356,-0.507604
3180,0.00158,-0.283874,-0.507604
3181,0.001581,-0.283874,-0.507604
3182,0.001582,-0.28691,-0.50305
3183,0.001583,-0.291465,-0.507604
3184,0.001584,-0.292983,-0.507604
3185,0.001585,-0.296019,-0.507604
3186,0.001586,-0.296019,-0.509122
3187,0.001587,-0.299055,-0.506086
3188,0.001588,-0.302091,-0.507604
3189,0.001589,-0.303609,-0.507604
3190,0.00159,-0.303609,-0.507604
3191,0.001591,-0.306645,-0.50305
3192,0.001592,-0.309681,-0.506086
3193,0.001593,-0.309681,-0.507604
3194,0.001594,-0.314235,-0.507604
3195,0.001595,-0.315753,-0.507604
3196,0.001596,-0.317271,-0.507604
3197,0.001597,-0.318789,-0.507604
3198,0.001598,-0.321825,-0.507604
3199,0.001599,-0.323343,-0.509122
